File: Raman_Spectroscopy_GAN/input/clinical_sample/s10/s10_1_785M-T_Rlab.csv
a,b
320, -36.0497
321, -19.6451
322, -2.66724
323, 9.26569
324, 16.1807
325, 17.6567
326, 14.3742
327, 8.98616
328, 2.78354
329, -3.60318
330, -10.2094
331, -3.98043
332, 23.2357
333, 61.2813
334, 91.5238
335, 115.66
336, 138.518
337, 157.172
338, 151.778
339, 120.623
340, 96.1019
341, 90.5239
342, 84.691
343, 62.8063
344, 35.0102
345, 23.5806
346, 24.1358
347, 22.4305
348, 15.3777
349, 11.7567
350, 12.8321
351, 11.5013
352, 4.71068
353, -1.55661
354, -1.68703
355, 3.8302
356, 14.3908
357, 27.5074
358, 32.8024
359, 29.167
360, 20.917
361, 9.416
362, -1.39065
363, -10.6972
364, -11.9758
365, 4.85854
366, 33.3641
367, 50.1803
368, 54.8071
369, 52.2678
370, 44.1956
371, 43.3145
372, 58.2636
373, 77.4472
374, 95.8587
375, 105.565
376, 94.9002
377, 69.8075
378, 47.9843
379, 30.8329
380, 23.0147
381, 23.298
382, 18.1252
383, 3.70323
384, -10.1397
385, -18.3861
386, -22.9669
387, -25.9021
388, -26.9357
389, -24.6234
390, -20.5008
391, -24.386
392, -37.0209
393, -43.67
394, -40.1327
395, -32.9581
396, -25.5428
397, -17.6786
398, -9.22557
399, -2.73037
400, -5.48003
401, -15.782
402, -24.3817
403, -30.4369
404, -30.0587
405, -22.2302
406, -10.8232
407, 3.1072
408, 30.9709
409, 84.6798
410, 160.041
411, 247.487
412, 328.053
413, 393.104
414, 443.867
415, 492.638
416, 541.822
417, 594.65
418, 651.957
419, 694.196
420, 709.214
421, 707.344
422, 701.01
423, 692.207
424, 685.307
425, 677.371
426, 655.894
427, 620.107
428, 574.385
429, 519.725
430, 457.285
431, 387.558
432, 315.918
433, 246.145
434, 171.059
435, 98.226
436, 34.668
437, 8.05511
438, 8.12648
439, -3.2403
440, -27.0632
441, -30.1522
442, -6.45749
443, 17.934
444, 34.6214
445, 68.5318
446, 138.833
447, 208.922
448, 241.716
449, 250.471
450, 264.389
451, 279.605
452, 277.724
453, 260.86
454, 255.551
455, 264.748
456, 258.122
457, 226.015
458, 188.312
459, 156.17
460, 121.257
461, 75.3704
462, 33.8521
463, 6.0179
464, -12.3562
465, -27.9416
466, -40.8208
467, -43.5
468, -35.7692
469, -23.2859
470, -7.07557
471, -0.964502
472, -10.3647
473, -18.3847
474, -13.998
475, -10.0185
476, -21.2558
477, -37.3824
478, -38.0108
479, -26.932
480, -16.3431
481, -5.80196
482, 7.48578
483, 24.6102
484, 42.7157
485, 58.514
486, 78.0704
487, 103.688
488, 126.938
489, 142.46
490, 141.021
491, 112.837
492, 69.8656
493, 32.8616
494, 5.66615
495, -13.9432
496, -27.3217
497, -33.2733
498, -33.1061
499, -34.1513
500, -37.9257
501, -43.9625
502, -52.245
503, -51.1885
504, -34.5692
505, -11.6925
506, 11.2012
507, 27.8128
508, 26.1665
509, 14.5181
510, 10.6357
511, 18.0017
512, 47.6698
513, 98.7385
514, 145.245
515, 183.276
516, 203.446
517, 204.871
518, 201.901
519, 198.661
520, 181.858
521, 145.286
522, 106.832
523, 79.3412
524, 66.4794
525, 62.1716
526, 67.6167
527, 86.1466
528, 106.279
529, 115.985
530, 116.914
531, 117.393
532, 118.158
533, 118.922
534, 119.512
535, 118.784
536, 116.622
537, 115.626
538, 116.439
539, 109.076
540, 88.5735
541, 81.9491
542, 101.957
543, 141.263
544, 179.317
545, 216.105
546, 251.61
547, 278.494
548, 279.742
549, 260.84
550, 242.087
551, 223.784
552, 199.825
553, 169.879
554, 137.127
555, 102.408
556, 68.2234
557, 42.2266
558, 24.5152
559, 14.4468
560, 14.8139
561, 27.6284
562, 37.5822
563, 34.2776
564, 17.9695
565, -11.067
566, -39.1309
567, -46.5404
568, -39.6652
569, -30.031
570, -18.5967
571, -8.59939
572, -0.827138
573, -0.385891
574, -4.73377
575, 2.16507
576, 20.1848
577, 24.3672
578, 10.6904
579, -8.05253
580, -28.1095
581, -33.919
582, -19.7714
583, 3.0405
584, 30.3075
585, 49.5683
586, 52.7182
587, 37.8443
588, 3.22989
589, -27.9921
590, -31.0845
591, -13.3419
592, 15.5892
593, 49.0408
594, 65.5677
595, 65.5608
596, 51.8472
597, 28.7711
598, 11.1336
599, 1.90117
600, 2.70619
601, 11.2098
602, 10.4785
603, -0.830628
604, -10.6792
605, -17.1126
606, -17.8605
607, -12.7112
608, -10.4621
609, -13.796
610, -10.3842
611, 5.39667
612, 9.44103
613, -12.362
614, -28.8988
615, -18.6447
616, -1.58651
617, 4.85871
618, 14.5514
619, 43.83
620, 67.5638
621, 51.1929
622, 17.1065
623, 7.8985
624, 14.7572
625, 19.1236
626, 20.4329
627, 22.9929
628, 24.5075
629, 16.7087
630, 3.28621
631, 1.75129
632, 10.6348
633, 14.8119
634, 12.3276
635, 3.31699
636, -9.77579
637, -12.8466
638, -4.27772
639, 5.74347
640, 15.9857
641, 32.9232
642, 55.2311
643, 62.4073
644, 48.7089
645, 41.9315
646, 52.6211
647, 60.1626
648, 55.0793
649, 49.4371
650, 49.65
651, 36.5307
652, -2.03071
653, -30.1124
654, -23.5985
655, -7.72871
656, -3.45934
657, -3.06765
658, 0.918505
659, 7.15934
660, 14.2191
661, 27.6624
662, 55.4584
663, 82.6813
664, 90.3835
665, 84.9777
666, 78.1231
667, 70.2422
668, 61.7387
669, 54.9814
670, 55.1897
671, 57.7826
672, 50.9916
673, 36.9301
674, 22.8792
675, 11.5999
676, 2.13794
677, -5.05847
678, -6.09058
679, -3.42257
680, -6.82306
681, -14.6417
682, -15.895
683, -7.77738
684, 17.9891
685, 58.7569
686, 83.3325
687, 89.6183
688, 86.842
689, 75.6463
690, 52.1005
691, 21.0724
692, 18.4937
693, 44.4893
694, 61.2226
695, 63.2162
696, 58.7507
697, 48.4486
698, 24.5171
699, -7.93542
700, -16.7381
701, 2.09049
702, 23.9539
703, 41.7361
704, 48.8338
705, 43.658
706, 26.5234
707, -0.0501578
708, -10.5878
709, -0.491975
710, 18.926
711, 44.8593
712, 59.8638
713, 59.1539
714, 38.2109
715, -1.11754
716, -20.1643
717, -10.8826
718, 8.20486
719, 32.2869
720, 49.5521
721, 56.0968
722, 44.8023
723, 15.432
724, -4.78801
725, -10.5342
726, -10.3044
727, -6.48313
728, 1.91389
729, 15.378
730, 26.8151
731, 33.779
732, 32.0608
733, 20.8997
734, 6.64095
735, -7.59357
736, -16.4357
737, -18.711
738, -13.7651
739, -1.26488
740, 15.4417
741, 33.5442
742, 35.4582
743, 18.6974
744, 5.72328
745, 2.5286
746, 5.06339
747, 12.4351
748, 23.4128
749, 35.1055
750, 37.598
751, 30.417
752, 27.4073
753, 31.4354
754, 41.8602
755, 54.6699
756, 43.4585
757, 8.80015
758, -13.536
759, -21.9763
760, -30.7021
761, -38.6632
762, -24.7507
763, 6.92072
764, 16.2676
765, 7.05625
766, 17.6619
767, 48.0144
768, 71.7815
769, 87.9448
770, 102.796
771, 111.574
772, 95.789
773, 60.6649
774, 27.4022
775, 3.79131
776, -2.57128
777, 4.77423
778, 17.5995
779, 30.6473
780, 28.1585
781, 15.4144
782, 5.96694
783, 3.43771
784, 15.285
785, 40.6005
786, 74.1793
787, 100.42
788, 97.0682
789, 80.2389
790, 70.292
791, 62.0766
792, 49.9579
793, 34.4134
794, 15.9028
795, 0.891513
796, -8.24334
797, -11.0961
798, -7.13464
799, -0.889098
800, 5.28327
801, 8.5666
802, 8.18927
803, 19.758
804, 49.7935
805, 71.3692
806, 75.8743
807, 71.368
808, 60.3473
809, 42.4817
810, 19.1755
811, 4.5849
812, -1.37835
813, -8.11646
814, -15.842
815, -14.2523
816, -3.20839
817, 11.1183
818, 27.1443
819, 35.9553
820, 36.5139
821, 27.829
822, 12.923
823, 0.667358
824, -3.18315
825, 14.358
826, 38.5167
827, 40.0439
828, 28.8549
829, 18.6483
830, 8.0294
831, -3.71662
832, -8.83477
833, -0.665598
834, 2.57558
835, -10.6101
836, -15.0084
837, 1.98596
838, 22.8431
839, 39.2504
840, 50.1177
841, 54.9597
842, 52.5197
843, 42.6529
844, 26.7358
845, 7.46506
846, -0.941164
847, 1.92154
848, 12.7744
849, 28.9716
850, 38.2771
851, 35.3358
852, 8.65545
853, -25.4993
854, -38.9072
855, -32.9393
856, -8.33457
857, 21.6284
858, 39.7625
859, 46.1338
860, 40.9137
861, 31.9833
862, 24.399
863, 20.5684
864, 21.0567
865, 15.7671
866, 2.54368
867, -2.20455
868, 3.41738
869, 5.2593
870, 1.14396
871, -6.33863
872, -14.0618
873, -9.82521
874, 5.47857
875, 26.2691
876, 44.2349
877, 44.2823
878, 29.7981
879, 6.55881
880, -7.87587
881, 3.06087
882, 24.5379
883, 44.0078
884, 50.981
885, 40.235
886, 21.181
887, -1.02084
888, -9.77331
889, -2.63158
890, 10.9218
891, 27.1869
892, 30.2313
893, 21.684
894, 13.9918
895, 8.62037
896, 7.46035
897, 5.06931
898, -8.05874
899, -18.207
900, -8.3024
901, 9.19755
902, 25.2382
903, 38.2472
904, 47.2159
905, 39.5865
906, 13.6292
907, 3.05074
908, 11.0365
909, 10.4128
910, 1.74258
911, 7.8679
912, 25.8143
913, 36.8564
914, 42.091
915, 45.8752
916, 40.3603
917, 15.04
918, -5.8483
919, -5.24767
920, -0.810467
921, -1.76061
922, -1.48197
923, 3.57191
924, 23.3277
925, 59.7941
926, 96.8148
927, 126.958
928, 130.763
929, 111.93
930, 84.2296
931, 55.1676
932, 35.9547
933, 22.5711
934, 5.62136
935, -14.2608
936, -36.26
937, -31.8555
938, 8.45735
939, 44.9319
940, 65.1585
941, 72.2216
942, 64.3549
943, 32.7901
944, -4.16299
945, -0.0822884
946, 23.2624
947, 27.9558
948, 26.8032
949, 32.1952
950, 30.7757
951, 15.9357
952, 11.0268
953, 20.9782
954, 21.8252
955, 10.9731
956, 2.77323
957, 1.39967
958, 16.3925
959, 40.2958
960, 53.3398
961, 49.6921
962, 23.374
963, -4.41363
964, -19.7204
965, -20.363
966, -6.16849
967, 11.8166
968, 30.1476
969, 36.5948
970, 34.027
971, 36.276
972, 36.8935
973, 21.8873
974, 1.64816
975, -11.7756
976, -18.2102
977, -17.602
978, -14.7534
979, -9.73882
980, 10.2889
981, 44.0134
982, 62.9995
983, 68.3359
984, 71.6561
985, 66.3503
986, 41.2296
987, 22.5737
988, 34.4725
989, 39.2923
990, 22.0524
991, 15.092
992, 23.3616
993, 27.6051
994, 27.1928
995, 29.2611
996, 26.872
997, 6.11052
998, -13.171
999, -12.8668
1000, -0.723612
1001, 19.0647
1002, 32.3449
1003, 34.4497
1004, 24.9229
1005, 7.39973
1006, -4.6193
1007, -7.66764
1008, 4.92339
1009, 17.6506
1010, 12.4822
1011, 5.12554
1012, 4.44802
1013, 3.8572
1014, 2.62147
1015, 8.89888
1016, 19.7571
1017, 18.5516
1018, 14.1104
1019, 25.4253
1020, 42.6286
1021, 57.3596
1022, 59.6383
1023, 45.6402
1024, 26.2499
1025, 6.08125
1026, -5.8635
1027, -9.46214
1028, -4.55435
1029, 4.27347
1030, 10.8575
1031, 15.5317
1032, 18.6629
1033, 16.7839
1034, 9.0761
1035, -0.321492
1036, -8.19235
1037, -3.10327
1038, 15.8888
1039, 49.5734
1040, 73.0843
1041, 65.912
1042, 50.6175
1043, 36.71
1044, 14.8139
1045, -8.83431
1046, -6.82245
1047, 5.56763
1048, -11.5063
1049, -37.9249
1050, -50.8651
1051, -53.621
1052, -46.9825
1053, -24.1189
1054, 11.0372
1055, 23.4464
1056, 15.9673
1057, 6.7747
1058, -1.87726
1059, -9.87091
1060, -16.2414
1061, -19.2583
1062, -3.51091
1063, 31.9477
1064, 66.5183
1065, 90.5242
1066, 96.1349
1067, 95.6483
1068, 113.346
1069, 165.652
1070, 243.373
1071, 288.224
1072, 293.897
1073, 299.557
1074, 315.336
1075, 353.027
1076, 386.067
1077, 387.87
1078, 359.258
1079, 305.226
1080, 263.736
1081, 240.367
1082, 224.918
1083, 201.197
1084, 142.952
1085, 77.5946
1086, 35.6536
1087, 33.5958
1088, 68.4048
1089, 74.5373
1090, 48.7808
1091, 10.5933
1092, -25.6823
1093, -47.9071
1094, -42.9962
1095, -6.72784
1096, 15.3119
1097, 14.1842
1098, 3.22007
1099, -10.84
1100, -19.9729
1101, -21.3436
1102, -12.989
1103, -8.70441
1104, -11.8018
1105, -12.3809
1106, -9.04871
1107, -2.05882
1108, 14.7005
1109, 48.3926
1110, 67.1089
1111, 59.222
1112, 54.6176
1113, 50.2432
1114, 13.1007
1115, -28.15
1116, -32.2705
1117, -17.8923
1118, 3.65611
1119, 23.6933
1120, 36.4486
1121, 32.0987
1122, 22.506
1123, 33.6639
1124, 51.5213
1125, 65.1705
1126, 51.6295
1127, 13.3886
1128, 0.913224
1129, 9.39278
1130, 18.5417
1131, 22.2062
1132, 16.8005
1133, 7.86734
1134, 0.88857
1135, 9.45997
1136, 27.9486
1137, 36.1514
1138, 37.933
1139, 37.7896
1140, 41.7549
1141, 49.4853
1142, 46.5198
1143, 34.1128
1144, 20.0779
1145, 14.425
1146, 22.9643
1147, 35.6514
1148, 45.8945
1149, 52.3902
1150, 49.7699
1151, 26.9336
1152, 2.31605
1153, -8.71709
1154, -18.4461
1155, -25.7496
1156, -3.13211
1157, 37.4487
1158, 61.8179
1159, 69.1545
1160, 59.7459
1161, 36.7519
1162, 7.78744
1163, 0.570831
1164, 9.82283
1165, 24.1639
1166, 23.7826
1167, 0.358713
1168, -17.9585
1169, -25.1634
1170, -18.7226
1171, -1.45804
1172, 22.8221
1173, 29.7043
1174, 12.7104
1175, 7.81413
1176, 17.2542
1177, 32.9526
1178, 48.4656
1179, 59.6325
1180, 63.5286
1181, 61.3927
1182, 63.7424
1183, 64.2645
1184, 49.5061
1185, 28.5678
1186, 8.16582
1187, -4.02761
1188, -9.64527
1189, -15.7998
1190, -18.1306
1191, -10.6342
1192, 2.69155
1193, 20.0541
1194, 35.0907
1195, 39.8884
1196, 20.4198
1197, 1.52383
1198, 0.140901
1199, 2.66582
1200, 9.01448
1201, 30.6429
1202, 54.7593
1203, 59.8452
1204, 67.0711
1205, 82.7575
1206, 91.9896
1207, 97.1001
1208, 106.794
1209, 104.603
1210, 82.4112
1211, 67.4221
1212, 61.8295
1213, 52.8051
1214, 37.712
1215, 15.1154
1216, -6.08326
1217, -22.1811
1218, -21.0445
1219, -8.54142
1220, 4.57705
1221, 8.39541
1222, 1.54105
1223, 8.75574
1224, 26.6189
1225, 35.3749
1226, 31.0293
1227, 12.0487
1228, -13.1797
1229, -36.071
1230, -35.9841
1231, -28.8915
1232, -30.1386
1233, -19.9965
1234, 2.36768
1235, 12.6297
1236, 11.852
1237, 5.46402
1238, -1.85585
1239, -5.37717
1240, 13.0718
1241, 43.9853
1242, 62.5777
1243, 66.888
1244, 59.7364
1245, 70.3574
1246, 99.5391
1247, 131.125
1248, 151.612
1249, 156.069
1250, 172.729
1251, 199.392
1252, 216.254
1253, 228.591
1254, 239.751
1255, 237.421
1256, 228.93
1257, 242.688
1258, 240.598
1259, 191.89
1260, 133.731
1261, 81.4298
1262, 58.2296
1263, 60.0175
1264, 81.7913
1265, 86.2983
1266, 72.9798
1267, 70.1957
1268, 73.3265
1269, 75.2209
1270, 71.3903
1271, 56.7144
1272, 18.8297
1273, -10.4283
1274, -4.69049
1275, 1.38565
1276, 0.296533
1277, 1.95959
1278, 1.4208
1279, -6.26462
1280, -7.12161
1281, -1.71746
1282, -5.67463
1283, -6.86635
1284, 6.24906
1285, 15.7222
1286, 17.0311
1287, 15.3561
1288, 10.8516
1289, 6.91552
1290, 29.2126
1291, 61.128
1292, 40.5303
1293, 3.76291
1294, -16.7516
1295, -16.1596
1296, 1.06345
1297, 21.7307
1298, 24.5711
1299, 0.242708
1300, -18.5275
1301, -21.5922
1302, 1.1475
1303, 11.0491
1304, -7.57879
1305, -10.8093
1306, -3.85644
1307, -5.61897
1308, -0.168035
1309, 15.1396
1310, 15.5731
1311, 12.8848
1312, 24.7713
1313, 21.2964
1314, -0.961103
1315, -16.024
1316, -22.5816
1317, -20.3876
1318, -5.39471
1319, 15.8837
1320, 20.0814
1321, 9.37035
1322, -8.30343
1323, -1.66845
1324, 24.8779
1325, 48.9363
1326, 65.7579
1327, 70.1605
1328, 47.2171
1329, 18.1782
1330, 14.1967
1331, 0.241389
1332, -23.5475
1333, -13.2251
1334, 8.16237
1335, 18.8134
1336, 23.2373
1337, 19.3895
1338, 0.30496
1339, -10.9132
1340, -2.65898
1341, 22.576
1342, 39.1607
1343, 13.5384
1344, -3.03637
1345, 0.0490283
1346, -3.49461
1347, 2.81923
1348, 29.8654
1349, 27.0937
1350, 9.42692
1351, 30.2928
1352, 44.5744
1353, 33.813
1354, 20.3831
1355, 6.77122
1356, -5.04326
1357, 4.52787
1358, 30.1282
1359, 38.2361
1360, 36.8804
1361, 33.2875
1362, 32.4989
1363, 29.7912
1364, 18.1686
1365, 21.0043
1366, 39.8642
1367, 52.1164
1368, 54.2311
1369, 44.5006
1370, 21.9098
1371, -0.237767
1372, -0.459393
1373, -1.245
1374, -7.94162
1375, -8.16504
1376, -2.29207
1377, 8.82248
1378, 24.259
1379, 34.9755
1380, 28.2211
1381, 16.2258
1382, 4.67603
1383, -3.71546
1384, -5.2399
1385, 1.64531
1386, 5.41673
1387, 7.46913
1388, 12.9584
1389, 12.901
1390, 8.3561
1391, 12.7518
1392, 19.8197
1393, 25.325
1394, 43.1538
1395, 57.8364
1396, 45.9367
1397, 21.5068
1398, 0.198507
1399, 9.74641
1400, 21.7952
1401, 18.4745
1402, 2.26068
1403, -18.0738
1404, -32.1608
1405, -7.85296
1406, 33.7433
1407, 33.6724
1408, 18.6748
1409, 3.61305
1410, -1.55657
1411, 6.46359
1412, 26.7256
1413, 34.9037
1414, 29.3343
1415, 14.2033
1416, 4.01694
1417, -0.855428
1418, -10.0985
1419, -16.042
1420, -13.3695
1421, 4.10733
1422, 30.2499
1423, 54.382
1424, 54.3475
1425, 34.0955
1426, 6.15669
1427, -6.80792
1428, -1.74177
1429, 16.455
1430, 20.6666
1431, 6.97076
1432, 5.35199
1433, 1.98189
1434, -10.4483
1435, -7.52229
1436, 3.2352
1437, 10.1497
1438, 22.4499
1439, 33.2447
1440, 28.8672
1441, 21.824
1442, 15.4137
1443, 5.86123
1444, -1.96379
1445, -5.72407
1446, -3.16683
1447, 11.0305
1448, 37.3612
1449, 45.5743
1450, 38.7119
1451, 28.1671
1452, 29.4795
1453, 37.8385
1454, 37.6741
1455, 26.6428
1456, 6.24411
1457, -16.5021
1458, -14.563
1459, 14.3684
1460, 31.15
1461, 38.9192
1462, 40.7801
1463, 25.0951
1464, 10.6534
1465, 15.6212
1466, 26.287
1467, 38.0748
1468, 48.9587
1469, 43.7857
1470, 23.0577
1471, -3.93137
1472, -11.8305
1473, 1.62225
1474, 24.7819
1475, 42.9502
1476, 47.026
1477, 28.6126
1478, 9.55454
1479, 2.47069
1480, 4.5449
1481, 15.8869
1482, 35.462
1483, 51.3046
1484, 46.4785
1485, 13.903
1486, -7.29845
1487, -11.762
1488, 0.346987
1489, 21.3222
1490, 32.3377
1491, 14.9019
1492, 7.67472
1493, 11.7686
1494, 11.7003
1495, 5.35808
1496, -1.37493
1497, 1.71065
1498, 12.6956
1499, 24.4118
1500, 23.3932
1501, 6.01233
1502, -14.5812
1503, -7.05967
1504, 20.0829
1505, 49.8891
1506, 47.0469
1507, 21.8431
1508, -9.90525
1509, -19.2477
1510, -5.12217
1511, 21.6828
1512, 21.5626
1513, 15.0425
1514, 13.4916
1515, 8.39409
1516, 8.02144
1517, 14.1013
1518, 13.2625
1519, 17.9481
1520, 29.3278
1521, 16.2951
1522, -1.88016
1523, -9.67528
1524, -6.57573
1525, 4.87857
1526, 17.8323
1527, 7.0408
1528, 3.53953
1529, 24.8031
1530, 46.1222
1531, 53.6004
1532, 39.4964
1533, 4.77129
1534, -12.8636
1535, -0.0556299
1536, 0.241012
1537, -7.38297
1538, -15.6893
1539, -18.6697
1540, 0.480173
1541, 38.5782
1542, 36.95
1543, 16.4375
1544, -2.30968
1545, -3.81458
1546, 1.85079
1547, 5.91971
1548, -0.284742
1549, -0.304793
1550, 14.5456
1551, 41.5656
1552, 49.0048
1553, 29.5495
1554, 4.09928
1555, -10.8774
1556, -13.5525
1557, -11.3209
1558, -5.54811
1559, 0.920254
1560, 2.5026
1561, -2.4445
1562, -14.0062
1563, -29.2362
1564, -22.714
1565, -2.27388
1566, 10.9165
1567, 26.9453
1568, 36.2993
1569, 31.3418
1570, 67.8408
1571, 122.62
1572, 154.952
1573, 190.152
1574, 228.859
1575, 269.266
1576, 314.693
1577, 342.158
1578, 342.243
1579, 335.433
1580, 340.149
1581, 347.366
1582, 310.158
1583, 253.034
1584, 197.502
1585, 163.667
1586, 122.234
1587, 68.8916
1588, 20.9695
1589, -7.58475
1590, -11.379
1591, 7.07899
1592, 7.02627
1593, -1.85921
1594, -6.5232
1595, -12.2249
1596, -17.2321
1597, -18.6832
1598, -12.1739
1599, -8.52466
1600, -7.82933
1601, 0.472202
1602, -0.602208
1603, -5.67397
1604, 3.38082
1605, 21.9749
1606, 37.4365
1607, 37.9872
1608, 28.4311
1609, 17.2098
1610, 11.3545
1611, 15.9715
1612, 15.1619
1613, 7.97844
1614, 12.2616
1615, 20.9607
1616, 22.858
1617, 5.3448
1618, -11.6777
1619, -14.2925
1620, 4.33688
1621, 19.641
1622, 19.4744
1623, 2.97728
1624, -13.7961
1625, -11.7357
1626, 5.19467
1627, 12.0884
1628, 9.45383
1629, 0.227533
1630, -9.7442
1631, -5.3934
1632, 9.46455
1633, 28.9548
1634, 44.1955
1635, 33.0184
1636, 7.22992
1637, 12.7405
1638, 23.8718
1639, 26.6214
1640, 14.7105
1641, -11.7307
1642, -22.6875
1643, -7.0229
1644, 2.51485
1645, 2.80049
1646, -3.72648
1647, -9.86783
1648, -4.30291
1649, 1.27773
1650, -8.42764