File: Raman_Spectroscopy_GAN/input/raw/streptavidin-negative/Streptavidin1ug_3_785M-T_Rlab.txt
a,b
320, -1.3889
321, 0.0582103
322, 5.89846
323, 5.8494
324, 2.37903
325, -0.180123
326, -2.36922
327, -6.73476
328, -12.2997
329, -3.66767
330, 23.5499
331, 45.7648
332, 49.8312
333, 39.5425
334, 19.6991
335, -2.67511
336, -8.5382
337, 0.87853
338, 15.6579
339, 33.4
340, 45.68
341, 49.2819
342, 43.1328
343, 26.3499
344, 7.131
345, 0.655207
346, 4.62577
347, 8.88056
348, 12.3922
349, 19.8847
350, 32.273
351, 39.9893
352, 38.1038
353, 33.2027
354, 32.7433
355, 33.7995
356, 29.3356
357, 20.5634
358, 15.1584
359, 13.8719
360, 12.626
361, 10.1523
362, 5.20195
363, -2.48902
364, -8.30978
365, -5.48119
366, 4.97757
367, 20.3479
368, 39.5938
369, 60.8717
370, 82.8209
371, 88.8718
372, 73.4756
373, 53.2004
374, 39.4661
375, 29.3678
376, 18.6336
377, 8.80675
378, 5.39604
379, 7.92945
380, 14.0594
381, 22.6023
382, 34.2927
383, 49.3056
384, 59.0112
385, 57.5665
386, 46.8918
387, 29.6998
388, 9.82686
389, -2.20052
390, -6.73881
391, -8.34651
392, -7.95263
393, -7.36749
394, -7.01527
395, -0.970178
396, 14.8952
397, 35.7579
398, 52.3475
399, 64.7871
400, 73.4055
401, 79.0169
402, 85.2089
403, 92.3352
404, 99.634
405, 106.889
406, 113.326
407, 118.584
408, 129.153
409, 150.943
410, 179.861
411, 208.608
412, 236.131
413, 259.43
414, 278.012
415, 290.23
416, 296.318
417, 304.348
418, 317.079
419, 335.799
420, 361.309
421, 384.184
422, 393.094
423, 391.735
424, 388.371
425, 382.471
426, 370.681
427, 354.606
428, 349.776
429, 357.897
430, 346.026
431, 301.468
432, 251.819
433, 216.471
434, 188.101
435, 156.977
436, 129.352
437, 120.195
438, 123.998
439, 114.838
440, 91.4148
441, 66.702
442, 43.4531
443, 24.2239
444, 6.50856
445, -0.396123
446, 10.3216
447, 31.2293
448, 50.6601
449, 67.2719
450, 78.2018
451, 81.9155
452, 73.0201
453, 54.0991
454, 46.3734
455, 53.3383
456, 67.4005
457, 85.9347
458, 103.294
459, 116.31
460, 119.696
461, 108.254
462, 87.6674
463, 67.7496
464, 50.8105
465, 43.0263
466, 41.3367
467, 28.7776
468, 5.25936
469, -8.64828
470, -9.99213
471, -8.73707
472, -8.63401
473, -3.12889
474, 12.6765
475, 23.9824
476, 13.446
477, -6.48791
478, -12.5593
479, -8.14473
480, -3.23562
481, 3.54274
482, 21.3041
483, 48.0389
484, 57.0301
485, 43.1119
486, 34.8431
487, 43.2778
488, 45.8605
489, 28.2509
490, 12.8726
491, 24.7784
492, 49.8443
493, 65.7922
494, 74.1968
495, 80.4622
496, 81.4771
497, 62.3349
498, 25.607
499, 2.76257
500, -0.640748
501, 0.834599
502, 2.64941
503, -0.0217737
504, -9.86401
505, -10.3422
506, 12.1294
507, 48.5775
508, 83.547
509, 112.645
510, 127.323
511, 129.215
512, 123.916
513, 115.432
514, 120.609
515, 140.113
516, 162.985
517, 186.596
518, 205.853
519, 219.275
520, 231.026
521, 243.047
522, 249.465
523, 246.063
524, 239.853
525, 238.703
526, 241.247
527, 245.147
528, 247.386
529, 240.455
530, 225.172
531, 205.941
532, 184.05
533, 164.416
534, 147.83
535, 134.479
536, 123.942
537, 108.68
538, 86.3024
539, 66.4067
540, 60.5037
541, 68.4049
542, 84.3416
543, 100.334
544, 107.539
545, 109.965
546, 114.142
547, 115.049
548, 100.838
549, 77.9986
550, 69.455
551, 73.5325
552, 73.8386
553, 69.799
554, 72.147
555, 81.1859
556, 77.3313
557, 56.3387
558, 41.3614
559, 41.0223
560, 39.9628
561, 29.9771
562, 21.587
563, 24.8672
564, 29.0004
565, 24.6513
566, 14.1536
567, 1.05828
568, -10.4041
569, -12.8692
570, -6.67537
571, 7.80595
572, 26.646
573, 32.3038
574, 24.4591
575, 10.7187
576, -5.51869
577, -7.4863
578, 6.92094
579, 23.6523
580, 37.8696
581, 37.4172
582, 18.2234
583, -0.721929
584, -9.90311
585, -3.66101
586, 23.0085
587, 48.3528
588, 52.5202
589, 40.699
590, 19.2282
591, -3.00959
592, -11.9445
593, -10.5908
594, -3.69037
595, 5.8015
596, 8.69357
597, 7.12748
598, 11.3228
599, 21.4077
600, 37.4164
601, 56.359
602, 60.0164
603, 47.1743
604, 33.1788
605, 22.0641
606, 21.1133
607, 31.2748
608, 33.2572
609, 20.6766
610, 9.71031
611, 7.50242
612, 3.25452
613, -8.74274
614, -12.1253
615, 5.34759
616, 17.7073
617, 0.203862
618, -19.4018
619, -10.8419
620, 9.95323
621, 19.503
622, 22.0784
623, 25.7541
624, 27.2377
625, 18.9025
626, 7.41527
627, 12.1664
628, 28.3701
629, 34.2912
630, 31.5158
631, 32.6423
632, 38.0156
633, 43.0146
634, 47.4305
635, 53.6574
636, 60.6631
637, 57.9156
638, 45.4847
639, 43.7665
640, 56.3924
641, 67.4173
642, 72.0525
643, 67.8789
644, 54.1898
645, 33.6412
646, 7.79654
647, -7.44546
648, -6.60859
649, 4.35604
650, 23.0455
651, 33.4298
652, 25.5692
653, 10.014
654, -5.35078
655, -12.7842
656, -5.83168
657, 7.25954
658, 17.9542
659, 24.302
660, 23.9927
661, 22.6688
662, 28.0248
663, 36.1906
664, 41.0857
665, 40.8114
666, 32.1529
667, 19.3175
668, 10.7467
669, 7.81296
670, 13.8321
671, 22.5689
672, 20.3437
673, 10.6517
674, 4.79973
675, 3.99071
676, 8.37653
677, 16.593
678, 25.3639
679, 31.6546
680, 25.283
681, 9.60415
682, 1.93532
683, 1.98561
684, -0.411837
685, -4.99946
686, -4.06197
687, 2.76241
688, 11.9363
689, 22.9353
690, 37.8238
691, 55.0064
692, 62.6431
693, 59.1056
694, 47.0419
695, 28.3492
696, 13.1367
697, 3.89109
698, 4.80033
699, 15.2064
700, 21.8659
701, 22.7101
702, 24.498
703, 28.5076
704, 31.8868
705, 34.074
706, 36.4385
707, 38.634
708, 33.3752
709, 20.023
710, 12.8138
711, 16.7093
712, 27.6951
713, 44.0722
714, 54.8425
715, 57.0413
716, 53.4911
717, 45.4521
718, 38.2525
719, 33.7522
720, 35.1982
721, 42.4941
722, 41.4594
723, 28.3452
724, 11.2952
725, -6.21408
726, -12.2566
727, -4.44333
728, 6.46688
729, 17.0313
730, 23.0589
731, 23.123
732, 15.413
733, 0.623586
734, -5.82123
735, -0.982787
736, 3.74659
737, 5.63313
738, 12.0546
739, 23.5575
740, 22.8679
741, 7.10738
742, -3.48845
743, -4.7765
744, -6.32517
745, -9.36715
746, -1.22332
747, 19.3181
748, 26.9952
749, 18.6708
750, 18.5754
751, 29.0595
752, 25.6666
753, 7.30236
754, 4.88083
755, 20.1586
756, 25.0134
757, 18.8412
758, 30.5569
759, 58.3009
760, 61.8065
761, 40.9638
762, 30.12
763, 31.0395
764, 27.271
765, 20.5778
766, 31.0696
767, 51.4023
768, 50.5554
769, 32.5539
770, 25.4269
771, 29.862
772, 38.9123
773, 48.2073
774, 45.9091
775, 34.0176
776, 20.6163
777, 11.1877
778, 19.6093
779, 40.2294
780, 61.1806
781, 74.9416
782, 67.0017
783, 45.8794
784, 28.0003
785, 18.8647
786, 26.8393
787, 38.6651
788, 35.198
789, 27.0688
790, 27.7508
791, 25.3856
792, 7.11804
793, -4.26503
794, 10.4479
795, 26.6922
796, 24.7378
797, 16.4464
798, 9.86348
799, 2.43583
800, -6.68995
801, -3.77264
802, 17.8145
803, 32.2598
804, 28.9795
805, 21.0846
806, 13.4727
807, 6.91243
808, 3.21178
809, 11.0868
810, 30.8995
811, 48.5309
812, 60.5141
813, 64.5864
814, 60.5534
815, 49.5845
816, 34.5515
817, 27.2871
818, 29.2646
819, 40.7886
820, 53.3785
821, 41.7088
822, 15.258
823, 1.41468
824, -1.00148
825, 2.56912
826, 10.8537
827, 21.1539
828, 31.4258
829, 39.0041
830, 40.15
831, 30.9733
832, 25.685
833, 35.7586
834, 36.5558
835, 12.7098
836, -3.97
837, 1.58595
838, 2.92045
839, -9.33238
840, -9.85239
841, 7.15024
842, 12.0033
843, 0.830774
844, 4.76271
845, 24.4653
846, 28.8366
847, 17.0946
848, 6.39319
849, -0.936372
850, -3.70644
851, 2.79294
852, 31.7122
853, 63.6851
854, 59.6605
855, 36.8373
856, 22.9824
857, 14.5149
858, 7.02597
859, 15.8101
860, 51.877
861, 66.7824
862, 31.5752
863, -0.758193
864, -5.78424
865, 1.68868
866, 16.3715
867, 28.7968
868, 35.4735
869, 29.3753
870, 12.053
871, -1.2249
872, -5.47962
873, 9.87744
874, 39.3063
875, 59.2105
876, 73.4059
877, 92.4583
878, 112.333
879, 126.481
880, 123.983
881, 93.307
882, 60.4676
883, 44.6743
884, 27.4922
885, 0.339638
886, -8.14213
887, 9.17911
888, 16.8586
889, 7.77714
890, 14.1053
891, 35.2162
892, 41.1367
893, 32.6205
894, 26.0946
895, 20.7236
896, 11.1134
897, 3.05679
898, 7.27211
899, 12.76
900, 6.56676
901, -3.02906
902, -9.61559
903, -10.4325
904, -3.50843
905, 15.0589
906, 44.1316
907, 55.3011
908, 45.0083
909, 38.9008
910, 37.7529
911, 25.5238
912, 6.99529
913, 1.76724
914, 8.21436
915, 22.4949
916, 46.4256
917, 83.6084
918, 102.192
919, 75.5331
920, 35.7088
921, 1.96571
922, -4.63588
923, 19.899
924, 43.8329
925, 56.6014
926, 44.2366
927, 13.4965
928, -1.73212
929, -0.317487
930, 13.0997
931, 28.4244
932, 29.4739
933, 20.2197
934, 5.21681
935, 2.24124
936, 21.2779
937, 38.636
938, 44.5462
939, 41.15
940, 30.3268
941, 20.0569
942, 11.7171
943, 5.3275
944, 1.53317
945, 2.05929
946, 3.62491
947, 0.711864
948, -2.32876
949, -1.68303
950, 1.81993
951, 7.67493
952, 9.70075
953, 7.43481
954, 16.8545
955, 36.3655
956, 44.4137
957, 43.8082
958, 51.8438
959, 60.3652
960, 51.771
961, 41.0288
962, 45.5538
963, 48.0175
964, 37.6443
965, 33.6237
966, 42.1281
967, 46.5282
968, 43.9095
969, 40.8621
970, 36.7572
971, 26.6989
972, 12.5362
973, -1.59352
974, -10.0228
975, -7.27019
976, 6.21771
977, 30.1186
978, 40.8855
979, 31.89
980, 20.316
981, 11.7693
982, 15.3664
983, 29.1385
984, 42.8726
985, 55.599
986, 66.5307
987, 79.304
988, 96.686
989, 105.16
990, 98.6597
991, 84.6701
992, 68.5495
993, 68.7384
994, 84.5517
995, 104.261
996, 116.664
997, 102.571
998, 78.9037
999, 63.3112
1000, 41.7573
1001, 8.43897
1002, -5.69041
1003, 2.90836
1004, 4.67175
1005, 0.994034
1006, 14.2136
1007, 33.9009
1008, 36.3535
1009, 34.9724
1010, 44.1505
1011, 45.4446
1012, 29.4264
1013, 8.87695
1014, -9.91537
1015, -14.27
1016, -4.17648
1017, 15.5544
1018, 36.9988
1019, 46.2507
1020, 42.6055
1021, 26.0447
1022, 9.64708
1023, 0.262108
1024, 2.78557
1025, 14.9651
1026, 18.0506
1027, 11.7489
1028, 1.64635
1029, -7.01481
1030, -8.49408
1031, -4.33664
1032, 4.6754
1033, 15.3194
1034, 25.6695
1035, 31.7393
1036, 35.0242
1037, 43.3392
1038, 54.9151
1039, 65.3051
1040, 66.7899
1041, 52.9313
1042, 39.6959
1043, 32.9534
1044, 18.1474
1045, -1.82048
1046, 0.115718
1047, 14.7159
1048, 14.7033
1049, 7.45468
1050, 2.09527
1051, -1.75617
1052, -4.24641
1053, 0.486452
1054, 13.1597
1055, 26.9304
1056, 34.4855
1057, 20.5744
1058, 0.932717
1059, -5.15367
1060, -3.80221
1061, 1.67713
1062, 7.98077
1063, 11.683
1064, 2.44853
1065, -10.9027
1066, -6.50722
1067, 6.40647
1068, 17.1405
1069, 31.6189
1070, 49.7231
1071, 61.2041
1072, 68.4985
1073, 93.8765
1074, 127.723
1075, 144.333
1076, 152.066
1077, 159.774
1078, 161.006
1079, 153.102
1080, 138.764
1081, 118.967
1082, 95.0546
1083, 78.7845
1084, 90.1651
1085, 110.669
1086, 125.383
1087, 129.122
1088, 120.825
1089, 105.509
1090, 88.0271
1091, 79.3152
1092, 72.7793
1093, 59.2088
1094, 36.1015
1095, 5.20711
1096, -0.969521
1097, 16.2166
1098, 19.7613
1099, 13.6917
1100, 13.0753
1101, 7.99593
1102, -7.60823
1103, -6.40265
1104, 15.3805
1105, 16.0766
1106, 2.90445
1107, 13.006
1108, 32.5191
1109, 43.3774
1110, 43.8605
1111, 33.7278
1112, 18.031
1113, 2.13026
1114, 0.549385
1115, 10.0668
1116, 23.9511
1117, 22.2981
1118, -3.75957
1119, -12.9331
1120, -1.81844
1121, -0.166169
1122, 1.10123
1123, 24.6245
1124, 42.5333
1125, 35.3189
1126, 30.8689
1127, 36.0835
1128, 39.6873
1129, 42.7853
1130, 50.8203
1131, 59.0363
1132, 63.0466
1133, 60.052
1134, 49.3619
1135, 32.7408
1136, 13.8774
1137, 0.445847
1138, -4.0196
1139, 2.66825
1140, 15.8663
1141, 31.5833
1142, 40.4296
1143, 42.7821
1144, 42.7198
1145, 34.6403
1146, 14.628
1147, 6.1873
1148, 15.4147
1149, 24.4905
1150, 31.2289
1151, 36.3109
1152, 31.2917
1153, 10.7947
1154, 2.29209
1155, 9.93053
1156, 7.25479
1157, -1.45923
1158, -1.59471
1159, 0.883382
1160, 2.20424
1161, 10.4093
1162, 25.0102
1163, 35.3969
1164, 40.7641
1165, 41.6325
1166, 38.6042
1167, 31.6881
1168, 17.6152
1169, -0.205185
1170, -8.15444
1171, -6.70756
1172, 3.17299
1173, 16.5009
1174, 28.819
1175, 31.5785
1176, 24.8862
1177, 12.8945
1178, 9.4629
1179, 27.2385
1180, 49.3365
1181, 67.7075
1182, 71.1788
1183, 59.8666
1184, 36.6427
1185, 16.194
1186, 6.58664
1187, -3.4865
1188, -13.9217
1189, -13.1103
1190, 0.554721
1191, 28.4724
1192, 53.7669
1193, 68.9716
1194, 72.368
1195, 68.814
1196, 68.7094
1197, 69.7016
1198, 68.5799
1199, 51.5908
1200, 21.9964
1201, 2.82377
1202, 4.9972
1203, 38.2927
1204, 72.9446
1205, 95.309
1206, 99.379
1207, 88.0499
1208, 68.8643
1209, 58.8015
1210, 65.7829
1211, 60.2424
1212, 42.1094
1213, 32.1177
1214, 22.9382
1215, 6.54904
1216, -0.135361
1217, 4.21844
1218, 3.3196
1219, 0.529593
1220, 3.65862
1221, 2.96567
1222, -3.73232
1223, 1.51572
1224, 17.6752
1225, 34.0022
1226, 35.3433
1227, 13.6278
1228, -6.38655
1229, -17.3893
1230, -15.4143
1231, -8.9178
1232, -5.82694
1233, -0.543496
1234, 10.0829
1235, 29.3836
1236, 52.5629
1237, 72.0493
1238, 69.2096
1239, 41.915
1240, 19.5838
1241, 12.8489
1242, 28.6128
1243, 58.7538
1244, 91.4757
1245, 103.452
1246, 100.34
1247, 102.149
1248, 107.559
1249, 116.28
1250, 135.751
1251, 158.266
1252, 161.483
1253, 158.848
1254, 160.467
1255, 158.816
1256, 157.637
1257, 172.288
1258, 193.631
1259, 212.587
1260, 223.87
1261, 227.161
1262, 225.932
1263, 219.251
1264, 206.211
1265, 189.273
1266, 172.045
1267, 163.785
1268, 156.163
1269, 140.979
1270, 130.16
1271, 122.936
1272, 104.328
1273, 88.5641
1274, 89.8952
1275, 85.9793
1276, 73.9277
1277, 67.5923
1278, 55.4987
1279, 27.056
1280, 13.7157
1281, 17.1349
1282, 18.7504
1283, 24.1108
1284, 36.8724
1285, 44.4587
1286, 44.4978
1287, 40.8941
1288, 38.2337
1289, 39.5194
1290, 36.1393
1291, 28.3622
1292, 23.189
1293, 25.5549
1294, 37.5784
1295, 46.4889
1296, 46.2768
1297, 29.8808
1298, 10.8528
1299, -1.07657
1300, -3.28276
1301, -1.33631
1302, -6.79354
1303, -9.11864
1304, -2.44943
1305, 11.8347
1306, 26.7841
1307, 31.0506
1308, 27.2768
1309, 17.504
1310, 5.14129
1311, -3.93634
1312, -3.20439
1313, 3.17272
1314, 12.1785
1315, 17.5263
1316, 12.5005
1317, -6.32067
1318, -10.7164
1319, 1.53012
1320, 17.7331
1321, 35.1383
1322, 50.979
1323, 54.7908
1324, 48.0623
1325, 37.7171
1326, 25.1889
1327, 11.5742
1328, -0.901892
1329, -6.78236
1330, -0.232658
1331, 8.28698
1332, 15.1302
1333, 21.3333
1334, 23.607
1335, 19.54
1336, 14.278
1337, 7.61753
1338, -3.45278
1339, -9.22309
1340, -4.70466
1341, 9.24454
1342, 23.823
1343, 26.1807
1344, 19.4707
1345, 8.53206
1346, 5.47152
1347, 14.1673
1348, 33.0888
1349, 36.9601
1350, 26.1003
1351, 13.0009
1352, 4.95685
1353, 6.09955
1354, 16.407
1355, 20.8844
1356, 3.61418
1357, -9.23764
1358, -9.85733
1359, 5.14576
1360, 28.9351
1361, 51.3265
1362, 48.0345
1363, 29.9419
1364, 19.471
1365, 22.5657
1366, 37.4876
1367, 52.2825
1368, 63.8224
1369, 68.9768
1370, 58.0345
1371, 39.3494
1372, 29.4856
1373, 17.6932
1374, 2.73253
1375, -4.40127
1376, -5.44034
1377, -2.69286
1378, -0.677017
1379, 4.69928
1380, 21.8775
1381, 41.1041
1382, 57.0571
1383, 64.6148
1384, 61.4347
1385, 45.965
1386, 18.035
1387, -4.28005
1388, 5.84389
1389, 13.83
1390, 13.4732
1391, 28.2489
1392, 30.4878
1393, 6.64157
1394, -2.06379
1395, 0.880626
1396, 2.21148
1397, 5.99993
1398, 17.5777
1399, 45.1149
1400, 59.3886
1401, 48.249
1402, 33.3745
1403, 19.6217
1404, 9.98024
1405, 10.8974
1406, 14.727
1407, 4.27398
1408, -8.07475
1409, -12.9004
1410, 7.12649
1411, 24.2361
1412, 20.8689
1413, 33.3857
1414, 51.8577
1415, 56.1773
1416, 57.8197
1417, 52.5059
1418, 24.3872
1419, 12.8531
1420, 24.026
1421, 9.43744
1422, -5.15499
1423, 1.20259
1424, 11.8062
1425, 19.5313
1426, 18.9252
1427, 9.49539
1428, -0.788592
1429, 5.74044
1430, 30.0187
1431, 58.3595
1432, 46.4377
1433, 25.2961
1434, 19.0516
1435, 22.2472
1436, 32.1894
1437, 44.7653
1438, 41.9684
1439, 25.6782
1440, 8.1596
1441, 7.29592
1442, 16.6819
1443, 2.5761
1444, 0.747059
1445, 24.6736
1446, 47.0321
1447, 68.5012
1448, 87.3403
1449, 75.7927
1450, 55.1809
1451, 54.2143
1452, 41.4966
1453, 19.5208
1454, 6.92111
1455, 8.68894
1456, 25.5477
1457, 53.7841
1458, 68.2253
1459, 60.2197
1460, 42.5751
1461, 24.7143
1462, 10.8371
1463, -6.09631
1464, -9.6161
1465, 12.759
1466, 33.7516
1467, 49.2743
1468, 59.1372
1469, 46.3642
1470, 17.2597
1471, -8.62386
1472, -16.1503
1473, -5.26804
1474, 14.8913
1475, 37.8976
1476, 53.601
1477, 41.5179
1478, 35.0337
1479, 48.3332
1480, 63.7911
1481, 72.9363
1482, 71.5376
1483, 61.8438
1484, 46.241
1485, 28.0619
1486, 16.1094
1487, 11.4363
1488, 14.6724
1489, 23.8751
1490, 31.2757
1491, 26.7505
1492, 10.4468
1493, -3.53729
1494, 5.3632
1495, 20.7359
1496, 37.3603
1497, 54.3863
1498, 47.3748
1499, 21.3483
1500, 4.74876
1501, -5.22292
1502, -8.11638
1503, 1.15817
1504, 8.79465
1505, 9.55159
1506, 7.44919
1507, 6.39232
1508, 4.72554
1509, -7.31448
1510, 0.631313
1511, 30.1946
1512, 28.0404
1513, 22.0704
1514, 22.8388
1515, 1.7886
1516, -1.4049
1517, 23.7225
1518, 18.9902
1519, 8.94888
1520, 9.26921
1521, 3.28866
1522, 4.51654
1523, 17.0686
1524, 14.8597
1525, 12.6072
1526, 19.9895
1527, 25.9373
1528, 33.801
1529, 42.2816
1530, 32.0974
1531, 20.4978
1532, 19.2224
1533, 19.6437
1534, 15.2972
1535, 3.59167
1536, -9.87046
1537, -12.8252
1538, 0.717045
1539, 21.9207
1540, 34.9254
1541, 32.5878
1542, 24.0882
1543, 25.6899
1544, 38.2631
1545, 32.4933
1546, 38.4186
1547, 59.6303
1548, 48.5686
1549, 35.5515
1550, 34.7745
1551, 36.4697
1552, 58.8959
1553, 85.7373
1554, 51.9749
1555, 8.47948
1556, -13.1691
1557, 1.82085
1558, 30.7309
1559, 51.6433
1560, 40.2287
1561, 16.6508
1562, -0.849592
1563, 5.25945
1564, 3.04049
1565, -6.43768
1566, -9.28527
1567, -5.44765
1568, 0.689125
1569, 3.7045
1570, 4.30164
1571, 0.472425
1572, -5.57582
1573, 11.7867
1574, 23.5054
1575, 13.5403
1576, 41.9421
1577, 66.6803
1578, 67.1689
1579, 78.9218
1580, 92.926
1581, 104.905
1582, 119.112
1583, 113.672
1584, 97.7806
1585, 109.917
1586, 147.648
1587, 179.015
1588, 158.635
1589, 130.711
1590, 103.162
1591, 76.8776
1592, 78.2838
1593, 70.1823
1594, 27.9549
1595, 5.66324
1596, -7.85345
1597, -17.5803
1598, 0.207164
1599, 15.492
1600, 15.8423
1601, 9.89952
1602, 16.221
1603, 31.7553
1604, 43.1549
1605, 47.18
1606, 42.8567
1607, 30.8502
1608, 16.6232
1609, 3.42356
1610, -2.98855
1611, 9.97584
1612, 36.8129
1613, 65.7977
1614, 79.3071
1615, 60.8491
1616, 31.5826
1617, 33.7027
1618, 40.4673
1619, 53.3426
1620, 71.8498
1621, 49.6314
1622, 24.1414
1623, 19.5957
1624, 17.2022
1625, 36.4168
1626, 60.2096
1627, 42.8412
1628, 27.6528
1629, 25.2521
1630, 31.7007
1631, 38.0665
1632, 26.1024
1633, -3.40798
1634, -1.98361
1635, 32.3592
1636, 76.3611
1637, 81.9744
1638, 53.4015
1639, 17.1968
1640, 5.29039
1641, 16.4083
1642, 33.3539
1643, 39.4232
1644, 19.9156
1645, 2.63236
1646, -5.13528
1647, -11.9943
1648, 1.38436
1649, 16.5928
1650, 8.76074