File: Raman_Spectroscopy_GAN/input/raw/streptavidin-negative/Streptavidin1ug_1_785M-T_Rlab.txt
a,b
320, 0.329687
321, -0.747993
322, -1.58805
323, 0.152671
324, 5.35735
325, 15.7905
326, 28.6263
327, 34.9513
328, 35.0533
329, 40.2813
330, 53.2804
331, 63.941
332, 66.7156
333, 63.7758
334, 57.8694
335, 49.7771
336, 41.6248
337, 33.963
338, 29.4422
339, 28.6932
340, 35.0473
341, 49.7491
342, 61.5723
343, 61.2798
344, 54.1716
345, 50.0612
346, 48.0794
347, 43.9739
348, 37.7744
349, 33.7876
350, 32.9778
351, 31.6989
352, 28.072
353, 22.4082
354, 15.0594
355, 7.46268
356, 3.81033
357, 2.92954
358, -0.111183
359, -5.65449
360, -6.03524
361, 1.15103
362, 10.2113
363, 16.9989
364, 22.195
365, 26.7323
366, 30.5729
367, 33.5957
368, 34.5165
369, 25.8418
370, 7.30015
371, -6.26389
372, -10.3846
373, -5.21271
374, 9.96119
375, 28.1885
376, 38.4793
377, 40.4049
378, 32.9965
379, 17.9363
380, 5.77192
381, -1.5375
382, -1.18682
383, 7.79821
384, 16.6241
385, 19.2561
386, 17.1704
387, 12.4522
388, 8.24774
389, 13.1924
390, 25.7551
391, 34.7505
392, 38.4826
393, 37.0963
394, 30.6527
395, 20.1816
396, 6.29707
397, -4.77141
398, -5.96693
399, -1.14876
400, 1.38227
401, 1.93332
402, 2.42511
403, 3.42957
404, 7.92253
405, 16.1973
406, 25.584
407, 34.8135
408, 36.2117
409, 22.7926
410, 4.96276
411, 1.79079
412, 11.0762
413, 26.3241
414, 45.3866
415, 65.3798
416, 85.3453
417, 98.4774
418, 102.573
419, 105.731
420, 112.985
421, 117.321
422, 110.308
423, 97.1471
424, 89.4339
425, 87.4916
426, 90.9143
427, 98.4553
428, 100.558
429, 94.9532
430, 77.4118
431, 46.394
432, 17.5876
433, 3.77905
434, 1.21918
435, 6.5027
436, 18.3196
437, 31.6828
438, 44.6675
439, 49.9355
440, 47.3117
441, 42.0316
442, 35.1829
443, 25.5733
444, 12.7982
445, 3.31341
446, 1.83109
447, 7.7062
448, 20.9082
449, 34.8555
450, 36.8636
451, 30.3753
452, 30.0188
453, 35.3689
454, 33.9216
455, 24.715
456, 28.3361
457, 51.032
458, 63.6385
459, 49.7913
460, 33.2865
461, 37.5398
462, 51.2354
463, 54.8464
464, 50.7842
465, 47.0021
466, 41.8869
467, 25.0414
468, -2.48373
469, -18.5643
470, -19.7877
471, -13.3186
472, -1.40783
473, 8.0248
474, 9.0644
475, 5.29927
476, 0.846803
477, 0.297079
478, 12.2287
479, 30.6846
480, 36.5272
481, 29.8515
482, 18.2671
483, 3.95465
484, -2.46068
485, 0.879331
486, 14.1731
487, 37.0506
488, 50.854
489, 43.7213
490, 29.0482
491, 21.0311
492, 18.709
493, 20.4095
494, 24.0527
495, 24.0229
496, 19.9163
497, 11.3717
498, -0.0929999
499, -3.0923
500, 3.57845
501, 9.83779
502, 11.8861
503, 9.55335
504, 2.78703
505, 0.14361
506, 7.79438
507, 21.3175
508, 33.3765
509, 40.5863
510, 36.3292
511, 25.8325
512, 25.3162
513, 36.7423
514, 49.847
515, 63.1188
516, 72.4936
517, 77.1339
518, 77.0362
519, 72.5836
520, 75.8428
521, 92.4737
522, 109.977
523, 119.378
524, 118.825
525, 106.242
526, 89.6525
527, 82.7486
528, 83.5476
529, 86.4642
530, 91.0997
531, 96.98
532, 103.03
533, 103.432
534, 97.7186
535, 89.9002
536, 81.0173
537, 72.4079
538, 64.691
539, 63.4537
540, 71.5101
541, 85.3349
542, 102.325
543, 111.047
544, 98.83
545, 72.8953
546, 44.9943
547, 20.3589
548, 12.7827
549, 21.8211
550, 45.6489
551, 77.2971
552, 84.0553
553, 64.5391
554, 38.4921
555, 10.9128
556, -5.08399
557, -6.51447
558, 3.83977
559, 25.5902
560, 40.122
561, 37.6786
562, 27.4076
563, 16.1888
564, 8.50325
565, 9.18324
566, 13.6662
567, 15.017
568, 12.2741
569, 3.58306
570, -6.21067
571, -5.20695
572, 3.6239
573, 5.90875
574, 2.38263
575, 5.12447
576, 14.0731
577, 17.2599
578, 12.8619
579, 8.46866
580, 6.01955
581, 1.62202
582, -5.7188
583, -5.35385
584, 8.34829
585, 24.1003
586, 34.0161
587, 33.4341
588, 18.1704
589, 1.11798
590, -1.85807
591, 5.04899
592, 15.6501
593, 26.6904
594, 31.4758
595, 29.0041
596, 17.1262
597, 0.917493
598, -1.13818
599, 8.88582
600, 15.0702
601, 15.8683
602, 14.0415
603, 10.6045
604, 10.0662
605, 13.6665
606, 24.1716
607, 41.2637
608, 45.9976
609, 32.0455
610, 13.6637
611, -2.51672
612, -8.20172
613, 0.810474
614, 11.4834
615, 13.7369
616, 8.37512
617, -3.87025
618, -13.6543
619, -10.6508
620, 1.54303
621, 18.4434
622, 32.1875
623, 28.9713
624, 16.1771
625, 10.7124
626, 14.8326
627, 29.0131
628, 48.7212
629, 58.8858
630, 58.1009
631, 45.4194
632, 24.5373
633, 13.822
634, 16.244
635, 25.4141
636, 39.3987
637, 50.0342
638, 55.9074
639, 59.2161
640, 60.3917
641, 58.1919
642, 52.0913
643, 39.515
644, 20.1214
645, 5.51309
646, 0.860657
647, 3.72794
648, 13.3273
649, 22.3323
650, 26.8325
651, 19.666
652, -3.62012
653, -16.8363
654, -1.54005
655, 21.8164
656, 34.2182
657, 42.3563
658, 53.0487
659, 58.9887
660, 51.5198
661, 42.2904
662, 47.1941
663, 55.8136
664, 51.8231
665, 43.4556
666, 45.5178
667, 56.2174
668, 71.4613
669, 83.9603
670, 77.8227
671, 56.9218
672, 32.2353
673, 8.21679
674, -3.50531
675, -4.10456
676, 4.51247
677, 19.7341
678, 29.8984
679, 36.0146
680, 45.0977
681, 56.8091
682, 67.1662
683, 72.5866
684, 59.1266
685, 29.5942
686, 5.42503
687, -9.15822
688, -11.1113
689, 0.313617
690, 27.9569
691, 66.5961
692, 82.612
693, 73.0443
694, 56.4872
695, 37.9722
696, 29.0083
697, 31.1409
698, 38.7819
699, 49.3553
700, 51.2873
701, 43.5184
702, 39.371
703, 41.7909
704, 49.1525
705, 59.1657
706, 53.0899
707, 28.4402
708, 9.39659
709, 3.32639
710, 9.5173
711, 27.2797
712, 40.9866
713, 46.4659
714, 43.5238
715, 32.9823
716, 25.6182
717, 24.5121
718, 28.2034
719, 36.004
720, 44.7347
721, 53.2554
722, 59.3625
723, 62.5254
724, 64.6912
725, 65.3044
726, 49.1527
727, 14.0768
728, -6.59601
729, -4.4113
730, 5.85269
731, 20.3583
732, 35.03
733, 48.1533
734, 51.5946
735, 43.3689
736, 28.7362
737, 10.4038
738, 1.9013
739, 5.59249
740, 2.59182
741, -9.73418
742, -8.3839
743, 10.6117
744, 21.1893
745, 18.3444
746, 20.7041
747, 31.4133
748, 37.2151
749, 36.27
750, 39.5441
751, 49.0139
752, 60.7777
753, 72.0947
754, 68.9969
755, 50.741
756, 31.3442
757, 14.2839
758, 4.8704
759, 2.7852
760, -2.27633
761, -9.57565
762, -4.40403
763, 12.2448
764, 22.0086
765, 24.5962
766, 30.1984
767, 36.0347
768, 25.431
769, 5.25018
770, 8.85622
771, 30.2483
772, 35.7235
773, 31.2083
774, 43.8741
775, 65.3933
776, 66.6301
777, 54.1071
778, 49.0173
779, 47.055
780, 35.8978
781, 25.709
782, 38.4078
783, 58.4486
784, 56.1078
785, 39.5024
786, 22.8668
787, 7.45882
788, -4.45802
789, -7.20476
790, 7.52277
791, 28.1074
792, 39.6074
793, 44.0444
794, 43.3161
795, 43.9612
796, 51.1168
797, 58.8722
798, 63.1072
799, 58.471
800, 42.28
801, 31.189
802, 33.2086
803, 38.8664
804, 43.6129
805, 39.283
806, 23.7509
807, 8.9428
808, 0.49791
809, 7.96534
810, 31.6485
811, 44.5396
812, 41.6967
813, 28.7632
814, 11.352
815, 13.9979
816, 35.4123
817, 54.022
818, 64.488
819, 56.6819
820, 33.4784
821, 6.15556
822, -14.0476
823, -2.81441
824, 26.3921
825, 42.0336
826, 42.1545
827, 25.0296
828, 5.12608
829, 1.6764
830, 8.98073
831, 20.5781
832, 28.2982
833, 25.4227
834, 14.5735
835, -1.97744
836, -1.77389
837, 25.5762
838, 46.1281
839, 46.2299
840, 34.9487
841, 16.6504
842, 5.16264
843, 3.81518
844, 6.40124
845, 11.4216
846, 15.333
847, 17.7121
848, 18.6667
849, 20.7342
850, 32.2302
851, 45.8487
852, 41.2381
853, 30.2692
854, 38.4745
855, 56.9673
856, 71.1799
857, 74.2185
858, 58.3793
859, 33.3618
860, 7.53633
861, -4.18612
862, 5.32237
863, 16.5913
864, 19.0993
865, 9.06196
866, -12.4103
867, -19.8635
868, -7.94136
869, 16.3198
870, 48.2989
871, 68.5071
872, 78.0682
873, 91.6474
874, 106.569
875, 111.498
876, 104.179
877, 81.3465
878, 50.9538
879, 25.1141
880, 13.2973
881, 26.7911
882, 45.6881
883, 55.9792
884, 57.3311
885, 50.0846
886, 44.7954
887, 45.3505
888, 48.7549
889, 52.7324
890, 46.9147
891, 32.2488
892, 23.5288
893, 21.0193
894, 18.7993
895, 15.3005
896, 7.91043
897, 0.881285
898, -0.318324
899, 2.84407
900, 8.9492
901, 17.7416
902, 28.9984
903, 30.7225
904, 17.1392
905, 4.50013
906, -1.23244
907, -3.17556
908, -2.59278
909, -1.17626
910, 0.640074
911, 1.92103
912, 5.74597
913, 20.7598
914, 41.2354
915, 54.8279
916, 54.4675
917, 31.2668
918, 8.31731
919, 5.23283
920, 13.6026
921, 27.1275
922, 32.1096
923, 24.0074
924, 9.45976
925, -5.80489
926, 1.29299
927, 27.9155
928, 46.1555
929, 51.9671
930, 41.8978
931, 22.9943
932, 7.03557
933, 2.44459
934, 16.4155
935, 30.8437
936, 34.6989
937, 43.0197
938, 60.5428
939, 69.1603
940, 65.1565
941, 56.4002
942, 42.9001
943, 19.5255
944, 0.522874
945, 21.9844
946, 60.3463
947, 76.3714
948, 76.3587
949, 66.9239
950, 58.6384
951, 57.5085
952, 60.2674
953, 63.4492
954, 47.531
955, 13.9355
956, -8.0669
957, -12.6808
958, 7.64387
959, 37.8253
960, 45.966
961, 37.2174
962, 18.4447
963, 2.4166
964, -2.10667
965, 3.47817
966, 17.6822
967, 24.1256
968, 20.44
969, 15.2842
970, 11.6564
971, 14.979
972, 19.7962
973, 15.1112
974, 7.89579
975, 6.94391
976, 12.2082
977, 22.7454
978, 33.4019
979, 41.9848
980, 46.5113
981, 47.0933
982, 46.2336
983, 45.88
984, 50.3648
985, 52.8846
986, 42.5321
987, 31.0268
988, 28.4343
989, 28.4766
990, 27.77
991, 23.1002
992, 14.6144
993, 8.53263
994, 7.0948
995, 11.4097
996, 16.6364
997, 14.9126
998, 6.48902
999, -7.88075
1000, -12.6128
1001, -0.503559
1002, 7.4136
1003, 5.41873
1004, 2.594
1005, 0.685326
1006, -0.922332
1007, 5.26249
1008, 34.2285
1009, 60.6158
1010, 57.7558
1011, 48.4695
1012, 44.7044
1013, 34.4125
1014, 17.5869
1015, 16.9491
1016, 29.1791
1017, 31.5986
1018, 26.2588
1019, 19.7362
1020, 11.0232
1021, -0.551274
1022, -2.72934
1023, 8.58872
1024, 16.0897
1025, 17.4229
1026, 23.8583
1027, 29.9169
1028, 17.5818
1029, 1.94877
1030, 5.22038
1031, 12.794
1032, 14.475
1033, 24.5969
1034, 43.0635
1035, 32.2818
1036, -1.27263
1037, -10.3871
1038, -0.0600321
1039, 15.9794
1040, 30.0754
1041, 35.4236
1042, 29.4798
1043, 14.1097
1044, 17.4304
1045, 39.8506
1046, 54.2165
1047, 55.2677
1048, 38.1876
1049, 21.3254
1050, 24.7902
1051, 39.5703
1052, 58.3605
1053, 54.1599
1054, 24.7607
1055, -5.20376
1056, -23.7239
1057, -10.5197
1058, 17.0008
1059, 36.4977
1060, 38.6727
1061, 20.235
1062, 2.88525
1063, -4.43794
1064, 9.53179
1065, 33.7143
1066, 34.2505
1067, 31.7556
1068, 54.1229
1069, 84.1271
1070, 114.286
1071, 144.906
1072, 169.877
1073, 162.343
1074, 138.611
1075, 139.616
1076, 151.615
1077, 159.977
1078, 171.748
1079, 187.396
1080, 183.924
1081, 164.094
1082, 156.151
1083, 151.398
1084, 130.496
1085, 101.782
1086, 72.1233
1087, 44.1523
1088, 20.4762
1089, 13.0098
1090, 19.4428
1091, 31.6842
1092, 41.9045
1093, 43.4313
1094, 45.1392
1095, 50.0749
1096, 38.4892
1097, 14.3717
1098, 15.0656
1099, 27.0932
1100, 17.5128
1101, 0.307008
1102, -12.2593
1103, -19.5532
1104, -19.2167
1105, 2.95315
1106, 37.2434
1107, 46.17
1108, 38.062
1109, 25.1306
1110, 17.2324
1111, 19.0755
1112, 28.9223
1113, 42.5233
1114, 46.815
1115, 48.1721
1116, 57.7809
1117, 66.7078
1118, 69.3624
1119, 67.2449
1120, 57.3444
1121, 25.3241
1122, -7.74726
1123, -1.08227
1124, 33.298
1125, 83.0381
1126, 116.64
1127, 123.951
1128, 106.221
1129, 75.7068
1130, 57.6777
1131, 45.3507
1132, 32.1262
1133, 16.2414
1134, -0.502321
1135, -5.08623
1136, 7.11693
1137, 44.3868
1138, 72.2333
1139, 61.3045
1140, 42.982
1141, 27.8173
1142, 8.41507
1143, -8.64614
1144, -6.83936
1145, 3.94965
1146, 15.3441
1147, 31.5868
1148, 49.7856
1149, 45.5598
1150, 24.8675
1151, 8.18246
1152, 6.18811
1153, 25.2963
1154, 47.4206
1155, 62.4358
1156, 50.6832
1157, 26.1757
1158, 20.7731
1159, 22.4439
1160, 21.8625
1161, 20.6161
1162, 17.3249
1163, 4.50611
1164, -4.26017
1165, 12.4278
1166, 31.7112
1167, 40.5568
1168, 51.3351
1169, 62.8964
1170, 61.7512
1171, 47.5419
1172, 21.6539
1173, 0.482486
1174, -7.73999
1175, -1.42262
1176, 16.1198
1177, 34.1488
1178, 38.1949
1179, 17.2082
1180, 2.39601
1181, 4.65579
1182, 22.4681
1183, 43.4329
1184, 46.7889
1185, 37.0949
1186, 18.3882
1187, -1.24133
1188, -11.344
1189, 13.9862
1190, 43.7853
1191, 38.8815
1192, 24.1225
1193, 10.7274
1194, 2.12574
1195, 4.47553
1196, 28.871
1197, 50.7431
1198, 53.9094
1199, 52.093
1200, 49.4586
1201, 47.6689
1202, 43.1739
1203, 31.7522
1204, 20.1698
1205, 12.4329
1206, 15.7657
1207, 24.0594
1208, 26.1982
1209, 29.7698
1210, 39.1815
1211, 46.8981
1212, 48.8355
1213, 38.3432
1214, 19.1655
1215, -3.20331
1216, -9.07936
1217, 5.12977
1218, 27.7669
1219, 43.3871
1220, 31.9577
1221, 21.0016
1222, 24.3855
1223, 39.4213
1224, 56.4364
1225, 55.4427
1226, 35.4575
1227, -0.123693
1228, -16.4861
1229, -11.5559
1230, 0.404947
1231, 7.87832
1232, 0.424072
1233, -2.33989
1234, 4.97877
1235, 19.6327
1236, 32.457
1237, 32.9372
1238, 34.5334
1239, 42.451
1240, 53.6461
1241, 61.8342
1242, 57.126
1243, 39.4228
1244, 14.0051
1245, 14.1746
1246, 30.3231
1247, 30.7971
1248, 22.308
1249, 11.063
1250, 8.19765
1251, 18.1312
1252, 46.0633
1253, 60.191
1254, 39.9851
1255, 20.3971
1256, 13.6171
1257, 30.6321
1258, 54.312
1259, 69.4954
1260, 63.437
1261, 43.1438
1262, 40.4599
1263, 51.4074
1264, 68.3313
1265, 68.3256
1266, 49.0945
1267, 25.3517
1268, 9.05998
1269, 11.4031
1270, 24.0143
1271, 38.5602
1272, 40.068
1273, 36.8823
1274, 38.6333
1275, 42.5434
1276, 45.6439
1277, 40.9856
1278, 26.0346
1279, 1.29831
1280, -0.147385
1281, 19.6892
1282, 22.1796
1283, 24.597
1284, 43.7452
1285, 47.4071
1286, 35.4223
1287, 35.5388
1288, 27.1184
1289, -4.36558
1290, -2.83847
1291, 28.9544
1292, 42.4106
1293, 46.2501
1294, 48.2336
1295, 37.3238
1296, 18.9752
1297, 12.3447
1298, 9.2825
1299, 4.39318
1300, 2.94078
1301, 8.9364
1302, 28.1574
1303, 38.981
1304, 31.9192
1305, 23.336
1306, 12.1851
1307, -6.88484
1308, -11.9543
1309, 2.09589
1310, 14.9061
1311, 22.0021
1312, 22.0921
1313, 28.7427
1314, 40.5676
1315, 35.4968
1316, 25.9903
1317, 24.3664
1318, 11.1227
1319, -6.49187
1320, 3.96402
1321, 20.0149
1322, 26.1457
1323, 43.0546
1324, 60.296
1325, 50.4161
1326, 37.3281
1327, 30.5696
1328, 15.4503
1329, 5.39638
1330, 19.76
1331, 24.7938
1332, 16.6837
1333, 22.2464
1334, 33.726
1335, 41.763
1336, 40.703
1337, 30.327
1338, 13.3185
1339, -1.8359
1340, -8.82113
1341, 0.817865
1342, 19.0343
1343, 30.7565
1344, 34.6035
1345, 33.061
1346, 35.9337
1347, 47.4446
1348, 67.4438
1349, 69.9279
1350, 58.0217
1351, 50.0137
1352, 42.9537
1353, 37.7456
1354, 46.7382
1355, 53.9443
1356, 41.2995
1357, 44.6728
1358, 63.1906
1359, 66.0649
1360, 54.4857
1361, 35.857
1362, 42.9893
1363, 65.2057
1364, 77.9539
1365, 69.0628
1366, 38.7229
1367, 1.20141
1368, -14.8791
1369, 4.58269
1370, 25.5631
1371, 38.2451
1372, 39.3744
1373, 47.6566
1374, 64.0561
1375, 66.4183
1376, 57.6394
1377, 43.3961
1378, 37.0486
1379, 37.9722
1380, 39.9431
1381, 31.3836
1382, 12.2382
1383, -2.08386
1384, 2.07852
1385, 29.5667
1386, 41.5639
1387, 40.5595
1388, 41.6767
1389, 30.6113
1390, 9.64583
1391, 2.12228
1392, -0.486394
1393, -1.55275
1394, 23.2902
1395, 53.6766
1396, 57.3958
1397, 56.4446
1398, 57.7679
1399, 61.3487
1400, 71.7595
1401, 86.1585
1402, 79.4873
1403, 55.3903
1404, 24.0636
1405, 13.1054
1406, 20.9099
1407, 27.6945
1408, 32.4088
1409, 32.7405
1410, 21.9624
1411, 24.5161
1412, 50.7219
1413, 52.7446
1414, 30.7747
1415, -1.54156
1416, -9.2819
1417, 4.82426
1418, 15.1184
1419, 19.7704
1420, 18.1154
1421, 8.35957
1422, 11.999
1423, 37.5717
1424, 39.1423
1425, 33.3218
1426, 50.6343
1427, 54.1421
1428, 42.5231
1429, 35.9677
1430, 18.7362
1431, -5.96961
1432, -1.88796
1433, 5.67842
1434, 1.72661
1435, 13.5695
1436, 23.6653
1437, 11.8517
1438, 24.6994
1439, 46.5809
1440, 30.9807
1441, 17.0033
1442, 17.5853
1443, 27.661
1444, 49.2515
1445, 74.5286
1446, 67.2402
1447, 44.9071
1448, 27.8472
1449, 33.8828
1450, 36.3482
1451, 4.30554
1452, -8.43614
1453, 1.40917
1454, 18.5682
1455, 30.7019
1456, 32.3061
1457, 20.8595
1458, 20.7742
1459, 41.5616
1460, 74.1095
1461, 93.9214
1462, 87.2736
1463, 65.7052
1464, 33.2947
1465, -2.84264
1466, -11.3822
1467, 0.446213
1468, 17.4531
1469, 36.174
1470, 47.7101
1471, 39.5458
1472, 34.0222
1473, 31.0579
1474, 14.2296
1475, 3.11127
1476, 2.24562
1477, -1.14707
1478, 2.69555
1479, 15.7797
1480, 21.9175
1481, 24.0623
1482, 24.979
1483, 23.3254
1484, 14.471
1485, -0.28652
1486, 9.14704
1487, 17.7635
1488, 1.07541
1489, 18.4771
1490, 42.4681
1491, 26.7742
1492, 28.7599
1493, 34.7315
1494, 6.26637
1495, 12.7592
1496, 37.469
1497, 16.0678
1498, -1.88732
1499, -3.97449
1500, 0.127936
1501, 19.8658
1502, 42.4635
1503, 29.2486
1504, 17.5265
1505, 18.8967
1506, 18.307
1507, 14.9799
1508, 8.24729
1509, -3.73295
1510, -7.13407
1511, 1.41785
1512, 9.52764
1513, 9.43404
1514, 6.27918
1515, 32.4502
1516, 61.3008
1517, 73.6338
1518, 64.7036
1519, 43.9694
1520, 26.8363
1521, 48.605
1522, 68.4426
1523, 62.4112
1524, 57.3839
1525, 45.682
1526, 24.4305
1527, 12.9581
1528, 4.21611
1529, 0.0893451
1530, 33.9624
1531, 66.9719
1532, 71.5743
1533, 59.2302
1534, 33.2808
1535, 5.23273
1536, 16.6442
1537, 27.0626
1538, 13.3674
1539, 2.84998
1540, 3.31956
1541, 17.8301
1542, 45.2693
1543, 42.7084
1544, 1.02574
1545, -19.7795
1546, -12.3745
1547, 16.524
1548, 35.906
1549, 38.3398
1550, 34.2233
1551, 60.554
1552, 75.1556
1553, 63.8986
1554, 45.783
1555, 33.1836
1556, 34.8806
1557, 57.9596
1558, 59.933
1559, 42.3803
1560, 40.748
1561, 42.6065
1562, 40.0695
1563, 26.7029
1564, 0.686251
1565, -21.6306
1566, -18.47
1567, -1.64302
1568, 14.3825
1569, 18.6128
1570, 40.7614
1571, 67.7906
1572, 81.8596
1573, 79.5172
1574, 70.8036
1575, 69.4149
1576, 97.084
1577, 122.141
1578, 125.831
1579, 120.692
1580, 122.66
1581, 137.07
1582, 156.002
1583, 146.276
1584, 115.498
1585, 108.125
1586, 124.326
1587, 142.704
1588, 129.151
1589, 85.3571
1590, 37.568
1591, 16.6537
1592, 20.7042
1593, 28.7265
1594, 26.7814
1595, 43.0987
1596, 52.8366
1597, 39.4457
1598, 8.60295
1599, -7.35912
1600, -0.450413
1601, 16.9802
1602, 16.6158
1603, 0.7373
1604, -8.99049
1605, 7.08047
1606, 34.0036
1607, 45.4118
1608, 26.3049
1609, 8.30989
1610, 12.5465
1611, 17.1552
1612, 20.9055
1613, 23.4022
1614, 23.524
1615, 35.6429
1616, 45.1298
1617, 22.0212
1618, -3.39747
1619, -4.59551
1620, 33.0029
1621, 73.338
1622, 85.0438
1623, 56.7378
1624, 11.1774
1625, -13.81
1626, -5.53649
1627, 32.7028
1628, 58.8931
1629, 64.2152
1630, 53.5975
1631, 33.0076
1632, 21.9476
1633, 28.7726
1634, 32.7486
1635, 41.9305
1636, 44.1006
1637, 9.40798
1638, 16.0099
1639, 59.1813
1640, 100.026
1641, 107.939
1642, 69.4339
1643, 5.90703
1644, 6.94819
1645, 30.363
1646, 39.9037
1647, 11.0526
1648, -5.3804
1649, -6.85281
1650, -2.68232