File: Raman_Spectroscopy_GAN/input/raw/streptavidin-negative/Streptavidin1ug_2_785M-T_Rlab.txt
a,b
320, 16.7221
321, -1.18643
322, -10.186
323, -3.83271
324, 12.7301
325, 29.7301
326, 44.0389
327, 44.3267
328, 30.5793
329, 13.5384
330, -3.83305
331, -9.70104
332, 2.04413
333, 21.6028
334, 34.8646
335, 40.8919
336, 37.2298
337, 25.8607
338, 19.9428
339, 21.6464
340, 29.1958
341, 41.8979
342, 52.978
343, 56.8617
344, 53.367
345, 42.1564
346, 25.6242
347, 13.1663
348, 5.63037
349, 2.61589
350, 3.53287
351, 6.44036
352, 9.9374
353, 12.1586
354, 10.992
355, 7.85905
356, 6.17395
357, 5.68074
358, 4.33292
359, 1.93685
360, -0.138768
361, -1.74323
362, -3.21881
363, -4.82782
364, -1.77716
365, 13.024
366, 34.3065
367, 46.7421
368, 50.7169
369, 53.8291
370, 57.3176
371, 61.1929
372, 65.4142
373, 64.6311
374, 55.1558
375, 40.0486
376, 23.8095
377, 8.16781
378, -1.93236
379, -6.42515
380, -6.11932
381, -1.54088
382, -0.0612099
383, -4.16617
384, -7.08981
385, -4.26702
386, 3.85224
387, 16.6587
388, 29.0354
389, 26.8913
390, 13.4533
391, 10.9864
392, 21.3684
393, 24.4909
394, 14.2876
395, 2.76628
396, -2.6343
397, -2.54381
398, 2.94067
399, 15.3259
400, 36.5538
401, 60.9374
402, 62.5761
403, 40.7065
404, 18.1312
405, 0.807838
406, -4.11896
407, 6.19238
408, 25.5949
409, 49.4838
410, 70.633
411, 80.7349
412, 83.1942
413, 89.8034
414, 101.243
415, 115.892
416, 133.434
417, 153.467
418, 175.8
419, 196.466
420, 213.001
421, 224.743
422, 230.898
423, 232.175
424, 230.154
425, 224.366
426, 212.691
427, 195.591
428, 178.513
429, 162.716
430, 149.924
431, 140.788
432, 132.018
433, 121.301
434, 109.45
435, 97.5397
436, 84.5794
437, 68.2017
438, 49.7242
439, 35.1313
440, 24.5748
441, 16.3151
442, 8.76206
443, 4.19744
444, 3.32826
445, 4.43991
446, 6.53973
447, 8.82376
448, 9.37345
449, 10.2066
450, 15.7391
451, 25.4465
452, 36.7726
453, 48.5589
454, 54.5513
455, 53.6452
456, 46.9827
457, 34.9799
458, 19.5682
459, 1.83143
460, -7.88827
461, -0.575564
462, 12.8046
463, 12.1136
464, 4.63463
465, 12.8886
466, 31.5937
467, 30.2218
468, 7.72119
469, -7.97431
470, -11.2255
471, -8.32398
472, -1.34796
473, 12.3538
474, 34.2083
475, 49.2735
476, 40.4042
477, 16.5855
478, -4.907
479, -19.9977
480, -17.318
481, 0.776389
482, 17.6996
483, 30.3849
484, 35.4875
485, 32.7584
486, 33.9708
487, 43.7527
488, 58.6105
489, 76.3235
490, 87.3644
491, 81.637
492, 64.5887
493, 45.6758
494, 27.8248
495, 18.5897
496, 16.1025
497, 10.34
498, 2.22428
499, -1.35657
500, 0.609664
501, 5.96862
502, 14.4881
503, 26.2984
504, 42.22
505, 59.4981
506, 78.043
507, 95.6973
508, 109.736
509, 121.944
510, 135.857
511, 148.061
512, 148.024
513, 139.872
514, 146.038
515, 167.131
516, 186.478
517, 201.445
518, 222.999
519, 253.976
520, 274.25
521, 274.281
522, 259.905
523, 235.312
524, 211.74
525, 201.802
526, 202.067
527, 206.665
528, 213.959
529, 220.072
530, 223.599
531, 220.015
532, 210.6
533, 205.007
534, 204.193
535, 203.156
536, 200.869
537, 200.092
538, 201.666
539, 200.809
540, 195.119
541, 188.822
542, 185.038
543, 183.157
544, 182.503
545, 183.795
546, 188.207
547, 189.99
548, 175.777
549, 150.864
550, 134.455
551, 127.063
552, 124.015
553, 124.643
554, 128.477
555, 134.243
556, 128.844
557, 109.319
558, 88.7354
559, 72.0881
560, 56.3847
561, 40.0267
562, 25.105
563, 15.7121
564, 13.6989
565, 21.8701
566, 30.699
567, 27.7992
568, 16.5451
569, 4.24438
570, -7.3198
571, -16.1089
572, -20.2357
573, -10.1279
574, 11.3246
575, 18.8584
576, 10.6791
577, 2.68977
578, -1.28473
579, 1.22326
580, 11.0395
581, 23.6153
582, 37.0133
583, 41.6939
584, 32.9746
585, 21.2163
586, 13.3237
587, 7.24395
588, 1.13461
589, -0.99601
590, 5.39714
591, 11.4909
592, 2.80351
593, -9.56327
594, -2.68446
595, 16.5696
596, 25.6628
597, 26.485
598, 30.323
599, 34.6738
600, 23.4451
601, -0.610411
602, -8.58832
603, 1.19752
604, 9.95049
605, 13.9396
606, 22.1181
607, 36.0639
608, 39.1219
609, 25.9094
610, 13.9915
611, 11.1372
612, 6.28584
613, -6.75737
614, -12.6269
615, -0.420724
616, 18.0801
617, 31.0717
618, 35.8101
619, 29.1045
620, 16.987
621, 8.26135
622, 3.1265
623, 2.11882
624, 5.78268
625, 15.8976
626, 27.7357
627, 30.014
628, 26.7731
629, 33.2282
630, 46.7844
631, 52.4683
632, 48.6588
633, 34.9833
634, 14.0827
635, 1.95212
636, 0.337535
637, 1.0244
638, 3.05258
639, 12.1816
640, 28.4351
641, 39.6211
642, 42.8631
643, 48.604
644, 59.7665
645, 62.1483
646, 50.3043
647, 33.0262
648, 14.6912
649, 6.23376
650, 14.093
651, 20.4719
652, 14.406
653, 3.85602
654, -4.84551
655, -9.1191
656, -6.39049
657, 5.84379
658, 30.4964
659, 53.2989
660, 57.3463
661, 47.8579
662, 31.9862
663, 14.5058
664, 2.76989
665, -2.92046
666, -3.24359
667, 1.41632
668, 10.836
669, 19.9713
670, 18.011
671, 11.7785
672, 19.074
673, 34.376
674, 40.3066
675, 36.919
676, 27.381
677, 14.3041
678, 5.68686
679, 4.22733
680, 15.2395
681, 32.3285
682, 29.398
683, 9.17826
684, -4.18558
685, -8.29642
686, -3.73878
687, 9.44175
688, 29.0826
689, 51.9204
690, 61.4799
691, 57.1728
692, 51.4009
693, 45.3545
694, 32.8282
695, 14.6366
696, 4.82649
697, 6.55661
698, 19.2521
699, 39.5008
700, 45.878
701, 35.9002
702, 29.6327
703, 30.836
704, 30.7357
705, 28.7348
706, 40.2616
707, 66.3879
708, 77.0332
709, 66.0676
710, 54.0098
711, 45.8762
712, 34.477
713, 18.6313
714, 8.51014
715, 7.90366
716, 16.5065
717, 32.7472
718, 47.7547
719, 58.7696
720, 64.7169
721, 64.5828
722, 49.4386
723, 18.3804
724, -4.34468
725, -11.4855
726, -1.33848
727, 25.908
728, 44.6248
729, 47.5714
730, 43.9137
731, 36.6612
732, 28.3778
733, 20.6952
734, 24.186
735, 39.4415
736, 35.783
737, 7.16698
738, -11.9404
739, -13.9162
740, 0.186208
741, 29.1248
742, 47.1124
743, 47.1631
744, 28.5905
745, -4.99441
746, -18.0783
747, -4.67079
748, 22.1106
749, 56.1143
750, 70.5732
751, 61.1816
752, 41.5347
753, 17.4913
754, 10.7017
755, 22.9874
756, 28.8143
757, 24.7508
758, 18.144
759, 11.406
760, 12.2433
761, 20.4438
762, 27.4971
763, 31.9432
764, 31.9137
765, 29.5941
766, 36.0213
767, 50.7591
768, 66.4174
769, 79.0085
770, 76.5034
771, 62.1655
772, 51.2295
773, 44.7452
774, 41.9858
775, 42.5316
776, 45.3434
777, 45.3318
778, 29.6523
779, 9.14295
780, 11.1014
781, 27.4567
782, 37.9312
783, 41.6528
784, 38.0801
785, 31.1148
786, 27.1188
787, 28.2861
788, 37.6301
789, 44.1116
790, 33.9023
791, 16.5689
792, 2.5013
793, -0.800305
794, 13.0107
795, 36.0657
796, 61.8978
797, 72.3907
798, 55.5474
799, 32.5738
800, 15.9845
801, 8.72448
802, 12.8742
803, 20.6873
804, 28.9623
805, 33.5544
806, 33.0714
807, 29.3648
808, 22.8047
809, 11.2023
810, -4.21287
811, -9.02654
812, -1.15763
813, 15.4913
814, 37.9339
815, 54.1511
816, 60.3394
817, 47.6227
818, 22.9225
819, 14.9746
820, 22.8976
821, 36.3472
822, 48.7525
823, 45.6757
824, 30.6485
825, 12.1251
826, -3.02995
827, -4.22677
828, 5.74301
829, 24.1236
830, 38.204
831, 35.2502
832, 24.9897
833, 15.5365
834, 14.3672
835, 25.8556
836, 28.5159
837, 12.0898
838, -0.787866
839, -1.23512
840, 3.2877
841, 10.6865
842, 19.8105
843, 28.0008
844, 17.0703
845, -9.06319
846, -8.80131
847, 16.6212
848, 34.7179
849, 41.3905
850, 35.5869
851, 20.863
852, 6.52186
853, -2.30365
854, 1.45884
855, 11.987
856, 19.3755
857, 22.6264
858, 20.7319
859, 24.1124
860, 41.3335
861, 54.0218
862, 51.0575
863, 48.0913
864, 51.7242
865, 46.7333
866, 29.9503
867, 26.612
868, 39.2445
869, 36.2918
870, 16.21
871, 3.62142
872, 0.567161
873, -0.134353
874, 1.91542
875, 10.0556
876, 21.7567
877, 31.8388
878, 39.9385
879, 45.7429
880, 49.3023
881, 50.6383
882, 42.3861
883, 19.4135
884, 0.901362
885, -2.90816
886, 2.58189
887, 15.4611
888, 29.8672
889, 42.4381
890, 40.2816
891, 26.0762
892, 25.5858
893, 36.8067
894, 40.9622
895, 39.8714
896, 41.8065
897, 43.739
898, 39.8004
899, 34.5696
900, 33.6056
901, 27.7668
902, 10.1552
903, 1.32013
904, 11.8464
905, 24.6151
906, 32.6024
907, 30.668
908, 18.3551
909, 1.50595
910, -12.0161
911, 4.62081
912, 43.1307
913, 65.3437
914, 72.5971
915, 72.1457
916, 62.0048
917, 39.315
918, 19.0528
919, 13.8433
920, 13.4742
921, 12.4576
922, 16.3018
923, 26.5093
924, 37.2371
925, 44.3608
926, 32.4242
927, 6.47246
928, -4.48018
929, 1.64234
930, 26.6139
931, 58.5225
932, 78.0843
933, 76.7652
934, 46.2961
935, 15.9275
936, 4.56209
937, 7.98187
938, 22.8729
939, 30.0991
940, 26.7383
941, 25.9582
942, 28.0694
943, 25.6179
944, 21.5889
945, 25.0596
946, 27.1749
947, 13.4775
948, 3.8374
949, 17.3754
950, 33.2914
951, 39.9306
952, 42.5967
953, 42.1231
954, 28.7185
955, 5.77569
956, 1.77418
957, 13.0333
958, 18.0632
959, 18.1892
960, 18.6513
961, 20.9345
962, 26.5771
963, 33.6088
964, 40.5125
965, 42.9658
966, 39.7151
967, 35.8274
968, 32.4993
969, 29.3353
970, 23.7232
971, 7.74344
972, -10.6617
973, -18.7961
974, -14.3918
975, 5.86048
976, 27.4743
977, 39.5617
978, 45.6151
979, 47.836
980, 53.5183
981, 64.9004
982, 84.716
983, 107.551
984, 118.262
985, 117.655
986, 108.234
987, 95.8536
988, 85.4804
989, 74.4581
990, 62.5097
991, 61.9122
992, 74.5414
993, 90.7171
994, 105.534
995, 108.193
996, 98.7198
997, 78.6854
998, 52.7645
999, 25.9463
1000, 8.74748
1001, 7.24485
1002, 10.6952
1003, 15.423
1004, 16.5492
1005, 13.9005
1006, 9.20154
1007, 3.48723
1008, -1.16768
1009, -2.53914
1010, 1.96861
1011, 10.0116
1012, 19.7428
1013, 30.1424
1014, 39.38
1015, 38.3698
1016, 29.1104
1017, 22.8082
1018, 17.2089
1019, 6.88413
1020, -2.12771
1021, -4.32405
1022, 2.79591
1023, 20.2
1024, 36.4096
1025, 45.9748
1026, 36.8414
1027, 14.1299
1028, -4.79924
1029, -7.15479
1030, 23.6717
1031, 53.9903
1032, 60.1184
1033, 47.5285
1034, 20.9179
1035, -1.10223
1036, -10.2802
1037, 9.00395
1038, 40.6081
1039, 50.5702
1040, 42.5394
1041, 21.0541
1042, 2.25642
1043, -6.03444
1044, -4.08661
1045, 5.07404
1046, 7.62462
1047, 4.27203
1048, 0.049355
1049, -2.34359
1050, -0.452902
1051, 2.86721
1052, 5.47056
1053, 1.24535
1054, -7.50327
1055, -3.41588
1056, 10.6047
1057, 21.4958
1058, 26.7179
1059, 23.9824
1060, 14.9853
1061, 2.19747
1062, 3.11346
1063, 19.037
1064, 34.1027
1065, 44.8614
1066, 53.0121
1067, 59.4517
1068, 65.2224
1069, 74.7127
1070, 88.9225
1071, 94.0252
1072, 91.3222
1073, 102.244
1074, 123.257
1075, 141.678
1076, 157.031
1077, 169.178
1078, 175.997
1079, 177.322
1080, 179.852
1081, 181.907
1082, 172.117
1083, 156.032
1084, 144.942
1085, 129.564
1086, 103.19
1087, 76.9595
1088, 53.1296
1089, 20.7992
1090, -6.92938
1091, 2.09204
1092, 20.0745
1093, 8.3908
1094, -3.89483
1095, -3.37417
1096, -2.61578
1097, -3.46477
1098, -0.375742
1099, 3.85673
1100, 2.28033
1101, -1.97871
1102, -5.88445
1103, 7.46612
1104, 38.3821
1105, 46.9683
1106, 33.4381
1107, 15.3889
1108, 0.705008
1109, -2.57336
1110, -0.200016
1111, 5.40661
1112, 15.2985
1113, 25.5135
1114, 24.1038
1115, 25.6096
1116, 53.2226
1117, 78.332
1118, 83.5017
1119, 77.8969
1120, 61.7788
1121, 25.4654
1122, -12.9058
1123, -19.3936
1124, -5.67358
1125, 19.1591
1126, 32.6313
1127, 29.1036
1128, 18.2006
1129, 5.83889
1130, 2.28746
1131, 5.51847
1132, 13.8164
1133, 20.6276
1134, 25.9608
1135, 41.5625
1136, 60.0303
1137, 60.9154
1138, 58.3732
1139, 65.2631
1140, 67.7667
1141, 60.2969
1142, 40.9399
1143, 16.1267
1144, 1.04897
1145, 2.35002
1146, 24.2734
1147, 43.3396
1148, 50.1657
1149, 40.8074
1150, 29.7961
1151, 49.5588
1152, 71.1232
1153, 70.3351
1154, 65.6277
1155, 61.3069
1156, 47.76
1157, 27.3724
1158, 7.17678
1159, -6.47689
1160, -10.9243
1161, -6.3671
1162, 7.67308
1163, 32.3638
1164, 51.9367
1165, 42.451
1166, 31.4634
1167, 34.0321
1168, 32.3541
1169, 26.5995
1170, 31.3658
1171, 40.913
1172, 46.3033
1173, 42.672
1174, 30.3974
1175, 27.2904
1176, 29.5741
1177, 19.8275
1178, 15.7244
1179, 34.568
1180, 51.6143
1181, 59.459
1182, 61.7486
1183, 54.2624
1184, 28.9848
1185, 10.7613
1186, 15.0855
1187, 26.3369
1188, 33.6181
1189, 13.9361
1190, -7.9342
1191, -2.33237
1192, 13.4675
1193, 31.7331
1194, 50.5014
1195, 54.9875
1196, 16.0918
1197, -13.0203
1198, 1.60528
1199, 26.0004
1200, 50.3466
1201, 74.0146
1202, 81.9689
1203, 57.9483
1204, 51.7541
1205, 77.3388
1206, 94.8263
1207, 101.621
1208, 104.235
1209, 99.1109
1210, 84.6156
1211, 68.4383
1212, 51.3607
1213, 30.2308
1214, 13.5685
1215, 11.9086
1216, 27.6245
1217, 51.8591
1218, 47.3482
1219, 22.237
1220, -3.83383
1221, -17.2296
1222, -13.3156
1223, 1.20822
1224, 15.8449
1225, 7.3302
1226, -7.10152
1227, -14.1096
1228, -3.91543
1229, 17.1832
1230, 20.2431
1231, 11.8975
1232, 1.67507
1233, 5.22614
1234, 23.1513
1235, 35.7279
1236, 34.597
1237, 12.4423
1238, -0.118785
1239, 7.76946
1240, 25.278
1241, 44.8869
1242, 57.7787
1243, 57.2897
1244, 44.6682
1245, 49.9377
1246, 61.222
1247, 43.6991
1248, 29.9732
1249, 43.4361
1250, 70.9853
1251, 104.67
1252, 130.467
1253, 135.804
1254, 115.137
1255, 101.525
1256, 100.881
1257, 106.915
1258, 111.801
1259, 108.312
1260, 87.4345
1261, 56.8616
1262, 47.3849
1263, 45.3998
1264, 36.9093
1265, 32.6514
1266, 37.105
1267, 40.5437
1268, 48.2595
1269, 65.1168
1270, 78.3679
1271, 82.5792
1272, 72.9388
1273, 70.6962
1274, 94.2779
1275, 91.0851
1276, 56.142
1277, 28.124
1278, 6.18603
1279, -10.4321
1280, 10.7044
1281, 56.0302
1282, 40.2415
1283, 13.0855
1284, 24.9981
1285, 31.2045
1286, 24.7667
1287, 24.0861
1288, 15.8821
1289, -8.48217
1290, -5.70767
1291, 21.7281
1292, 34.8458
1293, 37.0443
1294, 34.4981
1295, 42.7367
1296, 55.3006
1297, 48.1321
1298, 31.8244
1299, 14.9078
1300, 2.29235
1301, -1.45723
1302, 9.76944
1303, 20.0844
1304, 21.2838
1305, 27.7921
1306, 39.8465
1307, 53.8172
1308, 65.4173
1309, 69.9142
1310, 54.5952
1311, 26.6789
1312, -0.643552
1313, 1.01752
1314, 28.1153
1315, 31.5209
1316, 17.3649
1317, -2.87424
1318, -15.2128
1319, -13.6399
1320, 10.6123
1321, 28.9274
1322, 24.9193
1323, 36.6958
1324, 56.4668
1325, 54.7502
1326, 37.7399
1327, 13.0905
1328, 0.955955
1329, 5.74416
1330, 28.6191
1331, 43.9416
1332, 41.9701
1333, 20.1002
1334, 3.86288
1335, 12.3699
1336, 8.85042
1337, -0.988688
1338, 11.579
1339, 24.0741
1340, 26.8062
1341, 40.5148
1342, 58.2753
1343, 65.5805
1344, 60.01
1345, 46.2729
1346, 42.7985
1347, 30.4663
1348, -1.93234
1349, -0.726406
1350, 23.4558
1351, 24.7949
1352, 37.0135
1353, 63.8424
1354, 40.1448
1355, -0.435972
1356, -9.57866
1357, -6.94843
1358, 3.06263
1359, 23.8541
1360, 32.0468
1361, 18.93
1362, 22.1793
1363, 40.5036
1364, 62.0504
1365, 73.6227
1366, 69.6182
1367, 47.4662
1368, 30.7912
1369, 34.9238
1370, 40.2817
1371, 48.4128
1372, 67.2168
1373, 76.9347
1374, 73.2113
1375, 68.1977
1376, 46.0929
1377, 0.566394
1378, -14.4091
1379, -5.6847
1380, 0.407833
1381, 15.6825
1382, 34.6985
1383, 23.603
1384, 16.4945
1385, 36.7792
1386, 44.3722
1387, 31.855
1388, 1.94949
1389, -2.59227
1390, 23.9061
1391, 52.075
1392, 72.1668
1393, 75.3354
1394, 41.2274
1395, 8.21793
1396, 29.5635
1397, 35.6442
1398, 20.8661
1399, 25.7335
1400, 32.321
1401, 31.9596
1402, 36.8388
1403, 30.8428
1404, 0.902499
1405, -1.16254
1406, 16.0067
1407, 12.9955
1408, 6.60611
1409, 4.91182
1410, 7.33378
1411, 24.9387
1412, 57.069
1413, 56.7889
1414, 39.8126
1415, 36.5207
1416, 39.0614
1417, 43.7171
1418, 46.9368
1419, 35.0889
1420, 12.5271
1421, 19.3402
1422, 42.1268
1423, 62.5377
1424, 51.3483
1425, 21.127
1426, -2.41107
1427, -0.554962
1428, 20.2907
1429, 33.3744
1430, 26.9724
1431, 4.7031
1432, -3.97248
1433, -2.22451
1434, 3.33097
1435, -3.55894
1436, -7.68981
1437, 9.72853
1438, 32.1116
1439, 47.912
1440, 44.2013
1441, 25.3353
1442, 2.82562
1443, 3.14866
1444, 17.9763
1445, 38.6916
1446, 53.6321
1447, 57.924
1448, 49.2321
1449, 31.4714
1450, 14.9866
1451, 10.3988
1452, 5.13541
1453, 3.55307
1454, 16.4403
1455, 19.1605
1456, 12.29
1457, 18.4112
1458, 20.6627
1459, 15.0256
1460, 18.0727
1461, 21.9903
1462, 23.3069
1463, 35.4292
1464, 46.5483
1465, 44.3757
1466, 32.5296
1467, 15.4523
1468, -0.705305
1469, -4.09613
1470, 0.343851
1471, 0.112054
1472, -0.33688
1473, 4.38426
1474, 22.7489
1475, 36.4402
1476, 41.3235
1477, 47.7534
1478, 40.811
1479, 21.9809
1480, 27.7955
1481, 36.3311
1482, 32.0629
1483, 23.9172
1484, 15.7796
1485, 11.5479
1486, 21.1349
1487, 35.5133
1488, 41.7415
1489, 18.9879
1490, -10.0271
1491, -12.0393
1492, -2.1186
1493, 15.5602
1494, 37.7182
1495, 51.4907
1496, 50.0955
1497, 29.0707
1498, 7.61245
1499, 1.41902
1500, 26.9969
1501, 64.0304
1502, 85.0639
1503, 45.1898
1504, 13.092
1505, 10.9219
1506, 14.766
1507, 28.607
1508, 40.0709
1509, 5.32557
1510, 2.29554
1511, 47.3096
1512, 52.844
1513, 45.4125
1514, 36.3351
1515, -2.80276
1516, -20.0681
1517, 1.80396
1518, 7.93237
1519, 11.9756
1520, 23.5759
1521, 30.301
1522, 35.4298
1523, 38.5987
1524, 25.4794
1525, 17.8548
1526, 26.7176
1527, 29.1819
1528, 18.1638
1529, -1.64209
1530, 3.12082
1531, 21.6123
1532, 37.1086
1533, 25.7798
1534, 9.80275
1535, 9.26249
1536, 35.2496
1537, 57.5806
1538, 52.0619
1539, 7.57056
1540, -18.1518
1541, 0.546314
1542, 30.2807
1543, 47.8882
1544, 43.1696
1545, 23.2344
1546, 24.2936
1547, 54.0774
1548, 71.9621
1549, 69.6843
1550, 55.5282
1551, 61.8289
1552, 86.1491
1553, 110.947
1554, 96.5678
1555, 73.2929
1556, 51.4332
1557, 23.6422
1558, 2.16419
1559, -4.86444
1560, 7.53074
1561, 26.2018
1562, 39.2569
1563, 36.4968
1564, 32.0093
1565, 37.2796
1566, 59.0887
1567, 56.8522
1568, 29.9772
1569, -5.05098
1570, -12.3285
1571, 11.799
1572, 58.6521
1573, 80.2539
1574, 73.5338
1575, 51.643
1576, 57.3567
1577, 76.6165
1578, 88.4974
1579, 64.5882
1580, 46.2209
1581, 52.1282
1582, 70.5807
1583, 75.011
1584, 65.442
1585, 65.09
1586, 84.7576
1587, 102.918
1588, 81.1604
1589, 36.6392
1590, 7.20477
1591, 27.2855
1592, 49.7865
1593, 62.4908
1594, 62.3865
1595, 52.5385
1596, 48.397
1597, 49.5171
1598, 24.408
1599, 0.609471
1600, -4.35098
1601, 15.2023
1602, 26.3545
1603, 24.8324
1604, 21.8279
1605, 14.5202
1606, 15.6239
1607, 32.2772
1608, 18.2259
1609, 4.34925
1610, 14.2117
1611, 25.2059
1612, 35.8107
1613, 45.4599
1614, 52.1417
1615, 59.0317
1616, 57.6789
1617, 33.5855
1618, 2.50063
1619, -10.3908
1620, 10.3503
1621, 32.6378
1622, 37.1748
1623, 25.9721
1624, 35.2615
1625, 58.6766
1626, 81.7427
1627, 82.9864
1628, 66.0868
1629, 48.033
1630, 48.6403
1631, 63.0706
1632, 63.3259
1633, 35.401
1634, 4.5449
1635, -10.7942
1636, -3.11565
1637, 27.7076
1638, 32.89
1639, 18.6476
1640, 11.2455
1641, 11.7401
1642, 11.6533
1643, 9.63954
1644, 21.7113
1645, 44.0562
1646, 55.3079
1647, 23.6736
1648, -4.63364
1649, -6.43111
1650, 25.8475