File: Raman_Spectroscopy_GAN/input/clinical_sample/s7/s7_3_785M-T_Rlab.csv
a,b
320, -2.10631
321, -11.8037
322, -12.2853
323, 7.28346
324, 40.045
325, 73.7926
326, 103.236
327, 124.545
328, 137.305
329, 141.198
330, 136.352
331, 132.768
332, 135.935
333, 140.958
334, 141.644
335, 139.353
336, 137.888
337, 137.839
338, 141.491
339, 148.839
340, 152.338
341, 149.114
342, 139.968
343, 125.56
344, 109.39
345, 97.9332
346, 90.8664
347, 86.3646
348, 83.1949
349, 71.5409
350, 49.2797
351, 27.6598
352, 15.2441
353, 7.79855
354, 1.19013
355, -3.42105
356, -2.11961
357, 3.3762
358, 3.30956
359, -2.892
360, -4.62794
361, 1.2336
362, 4.35165
363, -2.26275
364, -10.6371
365, -10.3857
366, -4.51715
367, -1.10408
368, 0.564688
369, 5.83722
370, 15.5226
371, 20.2458
372, 17.0394
373, 11.8927
374, 8.93364
375, 8.94615
376, 11.7701
377, 18.6896
378, 33.3324
379, 52.1699
380, 64.0256
381, 66.7348
382, 55.7668
383, 29.7184
384, 5.98677
385, -3.04922
386, -6.45146
387, -16.0845
388, -27.341
389, -25.7537
390, -13.5523
391, -7.64387
392, -9.66506
393, -12.6972
394, -14.9062
395, -21.4251
396, -35.837
397, -49.0912
398, -49.8201
399, -42.7054
400, -37.8777
401, -34.9155
402, -31.8036
403, -27.926
404, -21.9617
405, -13.1118
406, -1.53667
407, 13.4262
408, 31.0128
409, 50.9237
410, 77.6572
411, 118.359
412, 175.738
413, 233.164
414, 288.285
415, 328.379
416, 352.557
417, 381.971
418, 423.762
419, 474.551
420, 532.236
421, 584.853
422, 618.017
423, 629.576
424, 614.817
425, 578.08
426, 537.567
427, 495.743
428, 456.948
429, 421.226
430, 370.716
431, 298.546
432, 221.554
433, 151.57
434, 99.7454
435, 55.5736
436, 19.5658
437, -0.123209
438, -7.41262
439, -13.349
440, -18.3481
441, -12.0961
442, 7.34254
443, 20.9
444, 21.9403
445, 29.4657
446, 57.0483
447, 95.8668
448, 125.768
449, 152.855
450, 190.553
451, 232.534
452, 253.227
453, 253.299
454, 254.087
455, 258.701
456, 253.54
457, 234.135
458, 202.065
459, 158.219
460, 107.068
461, 53.0103
462, 8.32202
463, -19.4529
464, -33.6333
465, -37.7798
466, -33.9775
467, -29.3918
468, -24.8665
469, -22.5852
470, -22.7024
471, -19.9159
472, -11.8749
473, -3.99176
474, 0.397403
475, 1.65707
476, -0.17248
477, -6.04251
478, -18.0143
479, -31.9352
480, -32.409
481, -20.0677
482, -2.94119
483, 18.6383
484, 40.037
485, 57.9107
486, 76.1112
487, 96.0537
488, 108.482
489, 107.51
490, 99.3187
491, 90.4569
492, 78.2563
493, 58.0844
494, 32.4695
495, 11.8112
496, -6.11782
497, -25.6032
498, -46.3045
499, -51.4153
500, -39.2332
501, -30.2333
502, -30.2021
503, -30.5576
504, -27.0869
505, -20.9718
506, -12.7885
507, -1.57343
508, 13.9775
509, 32.1341
510, 48.2432
511, 67.8557
512, 105.278
513, 151.021
514, 188.696
515, 216.3
516, 234.3
517, 243.019
518, 245.569
519, 242.953
520, 235.619
521, 223.745
522, 201.907
523, 166.207
524, 121.914
525, 74.9374
526, 41.2075
527, 31.7395
528, 37.448
529, 37.7595
530, 31.4045
531, 34.5838
532, 41.2224
533, 27.7942
534, -1.67719
535, -5.57506
536, 24.1086
537, 53.6651
538, 73.6605
539, 104.063
540, 146.535
541, 185.791
542, 210.54
543, 228.451
544, 248.023
545, 259.269
546, 245.945
547, 217.554
548, 196.648
549, 185.271
550, 187.144
551, 198.12
552, 197.24
553, 180.617
554, 139.864
555, 76.2194
556, 28.9182
557, 1.89184
558, -9.50064
559, -7.17621
560, 7.9796
561, 36.7784
562, 56.8375
563, 51.9236
564, 35.0928
565, 20.4253
566, 7.27479
567, -4.6202
568, -13.2221
569, -12.6384
570, -6.66636
571, -6.23571
572, -10.5646
573, -14.5212
574, -17.3214
575, -15.8938
576, -10.5669
577, -8.16989
578, -9.41508
579, -7.82562
580, -2.19315
581, -7.28111
582, -28.483
583, -34.9275
584, -10.9283
585, 24.1625
586, 56.924
587, 73.1249
588, 59.9933
589, 29.1668
590, -5.13474
591, -26.7179
592, -10.7259
593, 27.6173
594, 53.0212
595, 61.8689
596, 47.4816
597, 16.5604
598, -4.17963
599, -12.4278
600, 1.07382
601, 33.2542
602, 49.4264
603, 45.0478
604, 30.8303
605, 10.2834
606, -2.47963
607, -5.75368
608, -12.6331
609, -27.7003
610, -32.5068
611, -18.8923
612, -8.01777
613, -11.5342
614, -15.624
615, -10.5443
616, -8.25806
617, -19.887
618, -27.6838
619, -10.4362
620, 19.381
621, 42.0501
622, 54.4012
623, 51.04
624, 35.0153
625, 13.2958
626, -5.97248
627, -7.08257
628, 6.4838
629, 21.9165
630, 41.0164
631, 71.0648
632, 104.337
633, 120.614
634, 120.593
635, 124.319
636, 131.823
637, 118.92
638, 84.6554
639, 65.5346
640, 75.0912
641, 91.3763
642, 101.18
643, 119.491
644, 149.961
645, 160.602
646, 139.717
647, 124.548
648, 132.013
649, 130.556
650, 103.142
651, 78.0255
652, 81.0148
653, 85.0281
654, 75.691
655, 66.9591
656, 70.9846
657, 64.6149
658, 24.2593
659, -16.6819
660, -25.6135
661, -17.9084
662, -12.606
663, -10.462
664, -13.0849
665, -20.7121
666, -34.0273
667, -42.5412
668, -23.7195
669, 9.95205
670, 28.6152
671, 32.4614
672, 27.3917
673, 15.8494
674, 3.77602
675, -4.22621
676, 2.81004
677, 19.5389
678, 22.7759
679, 16.1322
680, 21.2461
681, 37.5137
682, 50.8435
683, 59.5269
684, 61.5845
685, 58.0839
686, 55.2862
687, 53.0511
688, 46.3379
689, 35.402
690, 25.8408
691, 17.0207
692, 1.2954
693, -21.0703
694, -29.4345
695, -22.0996
696, -10.379
697, 3.19803
698, 9.75805
699, 7.72939
700, 4.51058
701, 1.71764
702, -5.15177
703, -15.86
704, -13.5662
705, 3.69722
706, 11.3057
707, 6.07409
708, 16.7623
709, 49.7008
710, 75.4868
711, 87.5286
712, 97.6717
713, 108.346
714, 108.555
715, 97.1272
716, 98.8803
717, 128.951
718, 150.812
719, 157.495
720, 162.683
721, 170.047
722, 172.936
723, 170.252
724, 174.474
725, 188.671
726, 202.411
727, 211.508
728, 203.466
729, 175.3
730, 138.242
731, 95.7875
732, 48.6355
733, 3.88766
734, -17.9608
735, -13.835
736, -9.37626
737, -10.7665
738, -6.79146
739, 4.27737
740, 2.3833
741, -15.5327
742, -19.5195
743, -4.41941
744, 1.47763
745, -6.70628
746, -8.45557
747, 0.278196
748, 10.7516
749, 21.9082
750, 34.1628
751, 46.0008
752, 42.8861
753, 24.9289
754, 15.6357
755, 20.3139
756, 32.7846
757, 47.5897
758, 51.0106
759, 41.6876
760, 25.6705
761, 5.45219
762, -10.2938
763, -21.3008
764, -25.5278
765, -22.5319
766, -10.0094
767, 10.3197
768, 27.1474
769, 38.2824
770, 44.8521
771, 44.9083
772, 31.3684
773, 8.77678
774, -5.91445
775, -11.9756
776, -7.07273
777, 6.00006
778, 19.6983
779, 28.3279
780, 21.1982
781, 2.86867
782, -16.1189
783, -28.859
784, -21.0435
785, -1.43851
786, 15.85
787, 29.8018
788, 35.2183
789, 38.5447
790, 47.8726
791, 52.6527
792, 41.4589
793, 27.7075
794, 23.7912
795, 23.4301
796, 19.8114
797, 23.347
798, 41.4884
799, 57.0979
800, 61.8297
801, 67.9017
802, 80.9793
803, 88.8697
804, 86.4258
805, 75.8187
806, 57.7822
807, 31.4062
808, 2.62099
809, 0.439876
810, 28.8937
811, 56.4224
812, 74.2845
813, 94.0891
814, 112.617
815, 101.292
816, 62.9128
817, 28.299
818, 3.55458
819, -15.0369
820, -26.3982
821, -22.5826
822, -8.93946
823, 0.348772
824, 4.317
825, 0.97826
826, -3.829
827, -0.321849
828, 11.0003
829, 29.942
830, 43.4897
831, 39.1405
832, 30.377
833, 28.2755
834, 27.2293
835, 23.6774
836, 22.2397
837, 24.9044
838, 21.7895
839, 9.29973
840, -3.70447
841, -14.8067
842, -14.0632
843, -1.44789
844, 2.34604
845, -4.25301
846, -7.83342
847, -8.77585
848, -16.538
849, -25.1223
850, -9.58806
851, 16.7422
852, 11.5966
853, -7.70352
854, -6.79285
855, 8.64001
856, 29.8546
857, 58.3714
858, 90.6136
859, 114.236
860, 119.065
861, 124.717
862, 142.966
863, 154.025
864, 148.922
865, 136.127
866, 119.307
867, 104.914
868, 95.1206
869, 92.9952
870, 93.5448
871, 67.8156
872, 22.4961
873, 0.51145
874, 0.437081
875, 13.5995
876, 33.0872
877, 41.6743
878, 39.1471
879, 25.8997
880, 12.849
881, 13.0022
882, 26.9791
883, 53.2667
884, 61.5308
885, 36.8075
886, 9.10882
887, -8.63696
888, -15.6958
889, -13.0106
890, -7.17628
891, -1.17119
892, -5.16813
893, -13.8304
894, -3.34649
895, 19.7707
896, 32.3741
897, 32.1635
898, 17.0014
899, 0.234946
900, -2.15637
901, 3.91158
902, 14.2392
903, 16.907
904, 6.23804
905, -3.99642
906, -8.04002
907, 11.7113
908, 53.1474
909, 58.0919
910, 27.1904
911, 6.10136
912, 1.8658
913, 17.8296
914, 46.641
915, 68.4573
916, 70.3046
917, 35.6902
918, -7.10011
919, -34.1857
920, -30.6494
921, 11.5638
922, 53.324
923, 83.8984
924, 113.81
925, 143.434
926, 151.399
927, 140.64
928, 135.212
929, 134.041
930, 128.773
931, 122.453
932, 120.698
933, 109.226
934, 73.3397
935, 34.8371
936, 11.2755
937, -3.56953
938, -12.3219
939, -10.3045
940, 1.37295
941, 6.29223
942, 6.59143
943, 20.1272
944, 39.294
945, 42.8565
946, 36.0174
947, 28.3993
948, 19.8715
949, 10.3266
950, 8.20233
951, 17.1587
952, 29.7817
953, 40.3935
954, 41.3462
955, 31.4596
956, 13.6279
957, -2.3318
958, 6.34983
959, 26.1176
960, 26.0045
961, 17.1453
962, 12.9864
963, 3.60179
964, -15.851
965, -14.6715
966, 15.0875
967, 20.8141
968, -2.30364
969, -8.67531
970, 1.48575
971, 10.0282
972, 12.2714
973, 2.25287
974, -11.4505
975, -20.7136
976, -18.6421
977, -1.07806
978, 14.8599
979, 20.8744
980, 6.61405
981, -21.5946
982, -26.9877
983, -13.7296
984, -2.48637
985, 4.69358
986, 5.42193
987, 8.94704
988, 23.3515
989, 39.4417
990, 51.8675
991, 46.0151
992, 21.4374
993, -0.0292224
994, -12.172
995, -7.46596
996, 5.89139
997, 11.8741
998, 10.0468
999, 1.15805
1000, -4.89868
1001, -2.96236
1002, 10.4851
1003, 33.9628
1004, 41.5031
1005, 33.3618
1006, 25.5858
1007, 18.1114
1008, 8.20874
1009, 2.29523
1010, 5.48438
1011, 4.54704
1012, -5.79303
1013, 6.23723
1014, 44.397
1015, 61.4406
1016, 57.5282
1017, 57.9965
1018, 56.9414
1019, 40.672
1020, 27.0853
1021, 34.7963
1022, 35.7554
1023, 19.6828
1024, 8.28767
1025, 6.83166
1026, 8.70497
1027, 10.5729
1028, 4.69195
1029, -1.98297
1030, -0.731097
1031, 1.44724
1032, 0.349807
1033, 6.14187
1034, 20.1138
1035, 20.133
1036, 10.5396
1037, 21.6739
1038, 42.4149
1039, 49.833
1040, 45.6541
1041, 32.0505
1042, 13.4404
1043, -4.87716
1044, -7.29779
1045, 5.54569
1046, 15.372
1047, 17.465
1048, 7.54563
1049, -6.74675
1050, -17.3738
1051, -17.9286
1052, -6.41417
1053, -3.04511
1054, -11.248
1055, -21.8777
1056, -30.2036
1057, -26.369
1058, -13.9565
1059, 2.82096
1060, 12.8883
1061, 9.26952
1062, -1.88084
1063, -16.3228
1064, -17.0246
1065, -5.91896
1066, 8.13701
1067, 37.7794
1068, 98.7961
1069, 178.052
1070, 253.574
1071, 306.857
1072, 334.686
1073, 344.248
1074, 345.576
1075, 358.066
1076, 376.494
1077, 394.199
1078, 385.339
1079, 342.885
1080, 307.444
1081, 281.352
1082, 240.65
1083, 190.546
1084, 143.688
1085, 90.5365
1086, 34.7526
1087, 8.66348
1088, 15.0457
1089, 3.72366
1090, -22.6412
1091, -33.3103
1092, -32.3654
1093, -25.9264
1094, -13.1836
1095, 5.54456
1096, 14.7733
1097, 11.292
1098, 2.79203
1099, -8.0258
1100, -19.2115
1101, -25.1876
1102, -21.0776
1103, -5.93646
1104, 19.9362
1105, 45.2063
1106, 60.7207
1107, 47.7682
1108, 22.7945
1109, 5.9699
1110, -5.83042
1111, -13.5509
1112, -0.371699
1113, 25.8385
1114, 20.6722
1115, -0.637447
1116, -9.56425
1117, -11.2384
1118, -9.22972
1119, -9.41137
1120, -11.4808
1121, -7.16648
1122, 2.46642
1123, 13.925
1124, 31.493
1125, 54.6688
1126, 60.6245
1127, 48.1242
1128, 47.8934
1129, 52.7225
1130, 39.002
1131, 18.3778
1132, 4.03555
1133, 7.12906
1134, 29.0124
1135, 52.9131
1136, 69.1167
1137, 68.6494
1138, 54.9871
1139, 32.9547
1140, 31.303
1141, 54.7908
1142, 74.3064
1143, 86.9298
1144, 94.9966
1145, 92.2849
1146, 74.1256
1147, 59.459
1148, 52.0649
1149, 34.7365
1150, 14.2127
1151, 11.7765
1152, 12.9652
1153, 6.52351
1154, 10.1085
1155, 23.313
1156, 11.5987
1157, -9.3294
1158, -1.91971
1159, 4.4512
1160, -10.5012
1161, -23.7302
1162, -28.7803
1163, -24.308
1164, -9.9122
1165, 15.1858
1166, 33.4633
1167, 33.9633
1168, 19.5649
1169, -0.216424
1170, 3.1931
1171, 10.4696
1172, -5.88817
1173, -20.9066
1174, -24.8634
1175, -24.8947
1176, -19.3009
1177, -0.256351
1178, 14.0012
1179, 6.21317
1180, 5.08994
1181, 18.6638
1182, 40.0227
1183, 59.2052
1184, 63.6314
1185, 50.0699
1186, 21.075
1187, 20.3958
1188, 46.5012
1189, 60.8187
1190, 58.0694
1191, 35.9179
1192, 12.8086
1193, -1.02499
1194, -0.86457
1195, 4.56283
1196, -3.77908
1197, -11.2796
1198, -7.06161
1199, 11.032
1200, 37.1419
1201, 43.1566
1202, 29.5554
1203, 0.731451
1204, -14.5677
1205, -8.49744
1206, 3.93957
1207, 23.3186
1208, 54.5731
1209, 71.3985
1210, 61.2868
1211, 55.9931
1212, 57.739
1213, 50.5533
1214, 42.8258
1215, 42.9796
1216, 28.3353
1217, -1.481
1218, -12.7721
1219, -8.03597
1220, 4.77375
1221, 17.4192
1222, 23.1498
1223, 12.8336
1224, -8.46819
1225, -27.0228
1226, -38.3048
1227, -39.2119
1228, -29.7628
1229, -13.7269
1230, -3.43626
1231, -0.000544578
1232, -3.89641
1233, -9.42393
1234, -13.1615
1235, -7.98737
1236, 2.10723
1237, 11.0766
1238, 18.2947
1239, 26.5901
1240, 50.5557
1241, 77.1631
1242, 85.9967
1243, 88.0061
1244, 88.4491
1245, 82.4653
1246, 75.0461
1247, 85.6208
1248, 109.254
1249, 133.894
1250, 164.282
1251, 197.818
1252, 225.731
1253, 232.733
1254, 210.837
1255, 191.022
1256, 177.509
1257, 160.81
1258, 146.03
1259, 137.447
1260, 128.703
1261, 121.6
1262, 126.913
1263, 122.49
1264, 88.5051
1265, 47.7678
1266, 18.0678
1267, 16.3271
1268, 33.9297
1269, 60.7506
1270, 68.4496
1271, 56.8623
1272, 51.3938
1273, 55.3199
1274, 67.6594
1275, 57.6456
1276, 23.441
1277, -6.42215
1278, -21.5559
1279, -13.2448
1280, 3.06242
1281, 18.6334
1282, 16.0109
1283, 6.85856
1284, 4.45122
1285, 9.45718
1286, 19.6912
1287, 25.3403
1288, 27.1031
1289, 26.9265
1290, 33.1847
1291, 41.053
1292, 31.3689
1293, 18.1581
1294, 12.1356
1295, 4.4489
1296, -3.69592
1297, -2.83274
1298, -2.6771
1299, -7.23898
1300, 3.99547
1301, 25.9286
1302, 37.0597
1303, 38.2363
1304, 30.163
1305, 12.14
1306, -6.08298
1307, -11.816
1308, -2.77977
1309, 17.0393
1310, 20.1384
1311, 14.6848
1312, 15.3058
1313, 11.8367
1314, 3.11673
1315, -1.63741
1316, -10.6533
1317, -30.1323
1318, -28.4718
1319, -6.53722
1320, 10.7761
1321, 19.8918
1322, 19.6041
1323, 28.8951
1324, 44.4645
1325, 52.3783
1326, 41.8335
1327, 12.1443
1328, -12.7662
1329, -23.0642
1330, -9.02157
1331, 0.889249
1332, -0.336082
1333, -3.86859
1334, -0.694335
1335, 14.551
1336, 18.3655
1337, 10.5004
1338, 2.89477
1339, -8.21694
1340, -20.513
1341, -2.89132
1342, 19.4051
1343, 4.42324
1344, 13.2763
1345, 44.8427
1346, 22.4788
1347, -5.25392
1348, 2.26386
1349, -1.59312
1350, -6.51419
1351, 29.1156
1352, 46.2295
1353, 23.6648
1354, 7.10717
1355, -1.39991
1356, -6.45172
1357, 9.69754
1358, 45.5052
1359, 76.956
1360, 85.0946
1361, 62.8941
1362, 36.954
1363, 13.6114
1364, -2.33326
1365, -3.85604
1366, 4.83354
1367, 2.25179
1368, 4.82121
1369, 21.7983
1370, 18.4139
1371, 3.07951
1372, 0.48902
1373, -2.97117
1374, -7.15899
1375, 7.73459
1376, 22.093
1377, 19.6819
1378, 23.2733
1379, 31.2685
1380, 32.9216
1381, 25.1241
1382, 11.2775
1383, 7.88504
1384, 9.59574
1385, 11.8691
1386, 15.468
1387, 14.3023
1388, -0.488475
1389, -1.78304
1390, 13.0748
1391, 23.1251
1392, 31.1059
1393, 39.5542
1394, 40.2872
1395, 33.2607
1396, 20.3372
1397, 2.50818
1398, -17.0387
1399, -33.1659
1400, -23.3214
1401, 16.8754
1402, 44.6864
1403, 58.4123
1404, 62.5435
1405, 41.6397
1406, 10.303
1407, 3.89741
1408, -0.0479694
1409, -4.19987
1410, 15.3915
1411, 32.9363
1412, 29.6259
1413, 16.8499
1414, -0.0344372
1415, -14.7072
1416, -8.35403
1417, 9.47236
1418, 4.16938
1419, -8.56752
1420, -19.0588
1421, -17.4274
1422, -8.15282
1423, 1.87414
1424, -7.09478
1425, -14.8137
1426, 8.77481
1427, 30.7407
1428, 39.1043
1429, 32.2019
1430, 11.5169
1431, -11.7652
1432, -8.07911
1433, -1.54379
1434, -7.51103
1435, -6.73439
1436, 6.94095
1437, 35.4255
1438, 49.8746
1439, 52.7731
1440, 60.5435
1441, 65.1174
1442, 65.9482
1443, 69.5497
1444, 57.4496
1445, 29.382
1446, 28.4508
1447, 41.0579
1448, 50.1474
1449, 56.9809
1450, 54.3895
1451, 37.3394
1452, 48.2679
1453, 68.7376
1454, 56.8754
1455, 36.3975
1456, 19.2421
1457, 15.6575
1458, 32.9791
1459, 56.7543
1460, 30.4592
1461, 1.56359
1462, 2.99645
1463, 21.6746
1464, 49.0482
1465, 70.5671
1466, 58.1359
1467, 40.4211
1468, 62.7845
1469, 91.3013
1470, 110.429
1471, 107.082
1472, 91.9025
1473, 73.6543
1474, 63.7416
1475, 57.0243
1476, 47.8741
1477, 27.3914
1478, 19.2472
1479, 29.7761
1480, 39.9964
1481, 31.7311
1482, 2.02711
1483, -9.59014
1484, -9.94103
1485, -8.10677
1486, -3.10674
1487, 2.4017
1488, 6.03218
1489, 12.8477
1490, 20.1555
1491, 22.2553
1492, 3.78611
1493, -19.3556
1494, -20.8348
1495, -24.9205
1496, -27.2001
1497, -7.09646
1498, 15.28
1499, 31.0514
1500, 35.8958
1501, 27.9633
1502, 7.68407
1503, -20.0131
1504, -20.1077
1505, 6.75576
1506, 16.7068
1507, 20.0658
1508, 19.4618
1509, 3.42256
1510, 6.64559
1511, 33.9386
1512, 37.425
1513, 40.0915
1514, 46.9156
1515, 20.5095
1516, -4.06513
1517, -8.801
1518, -14.6868
1519, 4.50919
1520, 50.2169
1521, 44.5268
1522, 27.4509
1523, 23.6221
1524, -0.913544
1525, -9.76815
1526, 10.4874
1527, 2.2456
1528, -3.76053
1529, 9.47473
1530, 6.2618
1531, 12.6217
1532, 40.4444
1533, 44.82
1534, 40.8028
1535, 40.8693
1536, 39.1025
1537, 27.3238
1538, 5.70195
1539, -4.34214
1540, -1.85802
1541, 7.05094
1542, 0.00656048
1543, -15.9217
1544, -27.5829
1545, -6.31793
1546, 20.7047
1547, 29.8272
1548, 2.00291
1549, -20.0119
1550, -13.7898
1551, 25.2293
1552, 67.3444
1553, 88.7449
1554, 76.342
1555, 53.6549
1556, 30.9591
1557, 8.63386
1558, -7.23298
1559, -19.6515
1560, -34.8985
1561, -27.194
1562, -1.47643
1563, 18.8637
1564, 36.0513
1565, 38.2797
1566, 10.6436
1567, -9.74769
1568, -18.9445
1569, -19.444
1570, -0.936806
1571, 19.8975
1572, 28.2141
1573, 47.4632
1574, 85.7726
1575, 147.945
1576, 219.506
1577, 271.037
1578, 286.96
1579, 278.347
1580, 256.848
1581, 226.786
1582, 184.572
1583, 123.707
1584, 57.2544
1585, 24.1271
1586, 20.3136
1587, 28.2798
1588, 21.7128
1589, -0.0443806
1590, -23.451
1591, -32.7511
1592, -35.0703
1593, -29.9364
1594, -17.3041
1595, -5.09305
1596, 2.96339
1597, 4.64888
1598, -1.10204
1599, 2.89959
1600, 18.1636
1601, 27.5228
1602, 28.4306
1603, 24.6569
1604, 22.2935
1605, 10.729
1606, -4.45122
1607, -14.556
1608, -8.51615
1609, 16.8794
1610, 52.7451
1611, 53.2472
1612, 43.976
1613, 38.0867
1614, 30.3541
1615, 28.5905
1616, 21.5161
1617, -7.99604
1618, -1.60112
1619, 23.103
1620, 30.8405
1621, 19.8162
1622, -0.500724
1623, -14.4937
1624, 4.46192
1625, 23.5471
1626, 23.1078
1627, 0.624638
1628, -2.54794
1629, 8.89061
1630, 17.6527
1631, 37.0139
1632, 43.0843
1633, 24.978
1634, 15.5132
1635, -0.0395006
1636, -16.1127
1637, -6.24409
1638, 7.85388
1639, 21.1093
1640, 32.375
1641, 37.7557
1642, 31.9738
1643, 15.0162
1644, -1.74193
1645, -10.8169
1646, -13.5995
1647, -14.8727
1648, 2.69118
1649, 12.9112
1650, -8.8909