File: Raman_Spectroscopy_GAN/input/clinical_sample/s7/s7_5_785M-T_Rlab.csv
a,b
320, -57.4964
321, -41.0667
322, -27.4647
323, -11.9613
324, 0.254512
325, -1.43402
326, -11.7318
327, -9.76079
328, 5.31942
329, 20.2123
330, 32.8495
331, 52.5645
332, 85.7577
333, 128.783
334, 164.248
335, 196.072
336, 235.141
337, 279.503
338, 313.176
339, 334.391
340, 361.807
341, 402.499
342, 439.208
343, 457.729
344, 467.374
345, 485.38
346, 506.813
347, 510.876
348, 498.256
349, 495.092
350, 507.258
351, 513.525
352, 502.956
353, 486.37
354, 476.019
355, 469.221
356, 459.511
357, 445.345
358, 420.339
359, 383.602
360, 335.101
361, 274.882
362, 207.359
363, 135.307
364, 82.3936
365, 57.2105
366, 49.6186
367, 37.3503
368, 19.3189
369, 2.02965
370, -14.2342
371, -20.8021
372, -14.8694
373, -4.49266
374, 5.40465
375, 9.11913
376, -3.73272
377, -26.7639
378, -42.2418
379, -49.8068
380, -46.4531
381, -31.9938
382, -17.3177
383, -5.23043
384, 2.71095
385, 5.1557
386, 1.38283
387, -9.48793
388, -24.292
389, -32.766
390, -36.0027
391, -39.4031
392, -43.0161
393, -33.0809
394, -4.6383
395, 17.6112
396, 17.6982
397, 5.00379
398, -8.62188
399, -22.1392
400, -31.3401
401, -34.6516
402, -22.2428
403, 5.71804
404, 26.523
405, 36.2914
406, 49.9617
407, 75.5157
408, 113.666
409, 155.177
410, 196.867
411, 233.055
412, 261.892
413, 277.643
414, 281.858
415, 287.449
416, 296.817
417, 311.45
418, 331.763
419, 350.963
420, 364.825
421, 371.977
422, 370.768
423, 361.849
424, 346.678
425, 325.555
426, 299.477
427, 269.553
428, 243.746
429, 223.187
430, 196.151
431, 158.101
432, 116.596
433, 76.9471
434, 44.8838
435, 14.5831
436, -8.06809
437, -4.12833
438, 19.5156
439, 30.6917
440, 25.1949
441, 16.0733
442, 7.78063
443, -0.807901
444, -10.5294
445, -7.1199
446, 20.0983
447, 53.294
448, 64.8171
449, 64.8864
450, 75.9906
451, 94.0439
452, 100.704
453, 96.7308
454, 99.3446
455, 110.43
456, 109.832
457, 91.2119
458, 71.7003
459, 60.9091
460, 50.2869
461, 31.4193
462, 12.918
463, 2.37249
464, -3.37567
465, -11.4535
466, -21.5563
467, -27.1879
468, -27.528
469, -19.1934
470, -0.982355
471, 19.254
472, 37.6818
473, 49.5581
474, 51.736
475, 41.3313
476, 15.0343
477, -14.3223
478, -27.9363
479, -27.0658
480, -12.9587
481, 11.7634
482, 29.1609
483, 35.7999
484, 37.8268
485, 36.8793
486, 35.6534
487, 35.2345
488, 36.9365
489, 41.5946
490, 37.1235
491, 10.7161
492, -20.0713
493, -29.7146
494, -23.9111
495, -16.432
496, -8.29918
497, -2.8472
498, -0.576704
499, -5.37257
500, -17.6188
501, -25.8149
502, -26.7311
503, -20.9819
504, -8.25037
505, 12.4585
506, 43.0011
507, 79.9617
508, 118.853
509, 151.754
510, 178.866
511, 203.377
512, 234.843
513, 273.014
514, 313.747
515, 354.019
516, 374.974
517, 373.677
518, 363.086
519, 347.364
520, 328.233
521, 306.539
522, 286.478
523, 271.062
524, 254.04
525, 228.398
526, 193.534
527, 148.431
528, 95.9862
529, 53.1568
530, 18.6376
531, -1.28568
532, -7.61063
533, -0.525808
534, 18.5958
535, 32.1861
536, 34.166
537, 31.6854
538, 27.3058
539, 23.0164
540, 22.1491
541, 28.4956
542, 42.7047
543, 54.0844
544, 50.7836
545, 38.4681
546, 26.3601
547, 15.3712
548, 8.85517
549, 7.59737
550, 15.9568
551, 33.1704
552, 48.4309
553, 59.4437
554, 58.4241
555, 44.6751
556, 27.1235
557, 8.49239
558, -5.43388
559, -14.0539
560, -14.4962
561, -4.87253
562, 0.367502
563, -9.84481
564, -18.2337
565, -5.90667
566, 14.9189
567, 24.3836
568, 25.3974
569, 24.4748
570, 19.5102
571, 3.95858
572, -16.1275
573, -19.3696
574, -8.01978
575, -3.65944
576, -7.63069
577, -8.31962
578, -3.3493
579, 7.20417
580, 23.845
581, 38.5563
582, 48.6575
583, 56.9783
584, 64.8306
585, 61.2854
586, 39.0705
587, 15.0144
588, 5.72214
589, -0.397772
590, -16.9852
591, -29.4415
592, -12.6093
593, 17.4272
594, 23.5892
595, 14.228
596, 15.5768
597, 23.0698
598, 15.2596
599, -3.71319
600, -6.47726
601, 7.35004
602, 22.1039
603, 33.3006
604, 33.8089
605, 23.1309
606, 13.7689
607, 8.54596
608, -4.32747
609, -29.6103
610, -39.3373
611, -21.2177
612, -4.57678
613, -5.38096
614, -7.02282
615, 2.29054
616, 8.84652
617, -0.911822
618, -12.2415
619, -9.02558
620, -0.391398
621, 0.709743
622, 3.51123
623, 24.9485
624, 58.0317
625, 79.3591
626, 92.0446
627, 106.474
628, 121.119
629, 129.123
630, 133.587
631, 148.92
632, 172.463
633, 184.145
634, 183.67
635, 185.062
636, 189.218
637, 185.674
638, 173.553
639, 164.356
640, 160.665
641, 159.855
642, 161.057
643, 162.6
644, 163.298
645, 150.082
646, 118.211
647, 84.0561
648, 55.3407
649, 37.4595
650, 28.5148
651, 24.8293
652, 24.2585
653, 28.2304
654, 35.4209
655, 40.2323
656, 37.7902
657, 30.8228
658, 22.11
659, 10.4838
660, -4.39123
661, -13.6759
662, -4.22481
663, 11.2123
664, 11.6543
665, 0.356828
666, -16.4857
667, -32.8837
668, -35.5273
669, -27.0935
670, -12.9677
671, 2.93826
672, 9.62749
673, 7.74285
674, 1.44694
675, -4.78618
676, 0.813561
677, 14.1715
678, 16.888
679, 10.1146
680, 3.48827
681, -1.85897
682, -6.9036
683, -8.42592
684, 10.0462
685, 46.1753
686, 69.3602
687, 76.3865
688, 70.7714
689, 53.7482
690, 29.4406
691, 2.11017
692, -5.78185
693, 5.05469
694, 10.8908
695, 7.40142
696, 0.733071
697, -8.53967
698, -19.9976
699, -32.9122
700, -35.4239
701, -25.4505
702, -7.17792
703, 18.2341
704, 36.6824
705, 42.5886
706, 39.2411
707, 34.0763
708, 54.4488
709, 107.294
710, 159.554
711, 202.98
712, 230.053
713, 239.456
714, 240.811
715, 237.549
716, 237.472
717, 241.728
718, 235.643
719, 215.677
720, 193.239
721, 171.833
722, 151.71
723, 132.326
724, 105.53
725, 70.0993
726, 50.1619
727, 48.0589
728, 50.953
729, 49.9468
730, 42.5176
731, 28.4095
732, 14.1667
733, 3.56478
734, 0.206192
735, 4.33687
736, 6.69022
737, 3.78138
738, -6.59169
739, -24.4221
740, -31.7502
741, -25.5892
742, -23.8725
743, -29.9279
744, -29.4818
745, -20.0422
746, -14.0085
747, -12.7453
748, -4.08548
749, 12.8969
750, 15.1125
751, 0.984625
752, -0.14869
753, 14.8296
754, 23.9171
755, 23.775
756, 21.765
757, 18.9725
758, 13.5195
759, 5.7523
760, 0.173762
761, -3.05346
762, -3.79268
763, -2.18608
764, 1.25405
765, 8.09512
766, 24.97
767, 46.423
768, 50.2021
769, 39.9088
770, 38.351
771, 44.1199
772, 44.7838
773, 42.0062
774, 44.2615
775, 45.7457
776, 28.2929
777, 1.7218
778, -5.8838
779, -1.82985
780, -3.94695
781, -5.29963
782, 10.1718
783, 30.3746
784, 28.3778
785, 17.8858
786, 22.083
787, 26.7161
788, 10.9214
789, -5.47301
790, -0.486275
791, 12.2316
792, 18.5818
793, 24.2301
794, 35.5259
795, 42.6371
796, 37.8034
797, 25.8025
798, 10.0383
799, 0.226297
800, 0.293054
801, 2.9144
802, 4.95877
803, 14.0809
804, 33.5017
805, 45.5423
806, 44.8664
807, 40.4786
808, 34.9911
809, 26.1897
810, 15.1108
811, 16.5747
812, 30.1608
813, 31.0782
814, 17.2365
815, 0.0442333
816, -15.9503
817, -19.8327
818, -12.5337
819, -0.575683
820, 13.2304
821, 18.9596
822, 16.587
823, 7.67908
824, 0.88506
825, 11.2693
826, 24.8485
827, 18.0305
828, 3.24592
829, -2.22548
830, -3.10769
831, -3.95724
832, 1.55401
833, 19.1469
834, 38.5872
835, 50.165
836, 56.5355
837, 59.2757
838, 62.7178
839, 68.718
840, 77.9455
841, 89.8632
842, 96.6844
843, 96.0336
844, 85.4384
845, 65.7043
846, 44.133
847, 22.2267
848, 3.79998
849, -11.0832
850, -18.2265
851, -17.5918
852, -8.3285
853, 6.26341
854, 19.1878
855, 23.9298
856, 11.8836
857, -4.03656
858, -9.34482
859, -6.83658
860, 1.69631
861, 7.63684
862, 5.97637
863, 8.73531
864, 21.2447
865, 29.3171
866, 29.1666
867, 31.9385
868, 38.9673
869, 37.9121
870, 28.4976
871, 22.0502
872, 17.4972
873, 4.73626
874, -11.8862
875, -20.589
876, -17.5164
877, 5.73631
878, 35.2426
879, 45.6046
880, 47.5681
881, 52.8852
882, 50.7084
883, 33.2284
884, 17.4094
885, 13.4202
886, 5.28047
887, -11.5919
888, -11.9479
889, 8.64817
890, 29.3686
891, 42.9463
892, 40.3529
893, 26.0295
894, 19.3997
895, 22.3004
896, 28.5691
897, 35.486
898, 38.6895
899, 30.5553
900, 2.15342
901, -20.5768
902, -19.6259
903, -10.0009
904, 0.715986
905, 9.32331
906, 13.8154
907, 11.1617
908, 2.2318
909, -1.99047
910, -0.534463
911, 4.53052
912, 11.6224
913, 15.0016
914, 15.9216
915, 17.496
916, 19.3179
917, 20.735
918, 18.6396
919, 10.5733
920, 7.90424
921, 15.9289
922, 30.3135
923, 46.7885
924, 58.3097
925, 62.3903
926, 54.9434
927, 39.6032
928, 32.5026
929, 37.0547
930, 46.5935
931, 55.489
932, 54.8019
933, 42.7169
934, 17.6651
935, -1.41132
936, -5.36873
937, 1.52691
938, 17.1944
939, 29.0876
940, 33.4104
941, 27.795
942, 14.4105
943, 3.09404
944, -3.12279
945, -0.563043
946, 8.84587
947, 22.3317
948, 29.6535
949, 22.1499
950, 11.9564
951, 5.93525
952, 0.344461
953, -5.93549
954, -4.47922
955, 3.06957
956, -1.68213
957, -12.9012
958, -4.82409
959, 15.6224
960, 30.876
961, 34.5146
962, 19.8339
963, 2.79799
964, -5.68837
965, -8.45703
966, -6.52674
967, 1.01273
968, 11.0374
969, 2.23131
970, -17.6041
971, -17.4826
972, -4.95821
973, 2.56221
974, 8.53813
975, 16.1397
976, 21.1174
977, 20.8899
978, 17.5678
979, 11.9089
980, 3.55664
981, -5.48112
982, -8.3073
983, -7.00848
984, -8.70239
985, -10.3465
986, -6.53108
987, -5.24079
988, -13.22
989, -16.6049
990, -9.97941
991, -10.534
992, -19.443
993, -14.2258
994, 4.95972
995, 25.7717
996, 43.345
997, 51.5623
998, 50.4894
999, 40.4621
1000, 28.0878
1001, 17.4032
1002, 14.3563
1003, 17.6445
1004, 10.7684
1005, -3.06674
1006, -8.76925
1007, -5.05987
1008, 9.34328
1009, 33.2751
1010, 66.2866
1011, 101.391
1012, 135.139
1013, 148.835
1014, 138.087
1015, 111.804
1016, 76.3892
1017, 47.5041
1018, 34.7585
1019, 43.3603
1020, 58.1501
1021, 60.3138
1022, 61.0644
1023, 64.9963
1024, 62.9788
1025, 54.1506
1026, 46.1103
1027, 36.3901
1028, 16.0089
1029, -1.79351
1030, -2.27227
1031, -8.94169
1032, -36.2269
1033, -39.8106
1034, -9.06093
1035, 14.4347
1036, 26.315
1037, 38.027
1038, 40.9536
1039, 17.5861
1040, -6.72432
1041, -9.77245
1042, -11.1593
1043, -18.5294
1044, -18.823
1045, -11.9646
1046, -10.9974
1047, -17.2185
1048, -30.9255
1049, -47.3651
1050, -61.2341
1051, -63.0473
1052, -48.5348
1053, -31.3572
1054, -18.2959
1055, -28.6102
1056, -53.9814
1057, -68.5472
1058, -71.4078
1059, -61.2965
1060, -27.8887
1061, 34.0052
1062, 91.8442
1063, 145.351
1064, 223.089
1065, 333.521
1066, 482.219
1067, 636.333
1068, 796.64
1069, 958.876
1070, 1117.42
1071, 1237.81
1072, 1318.16
1073, 1389.55
1074, 1445.06
1075, 1462.55
1076, 1448.08
1077, 1407.54
1078, 1317.53
1079, 1173.67
1080, 1029.12
1081, 892.16
1082, 750.199
1083, 607.558
1084, 473.57
1085, 329.948
1086, 197.286
1087, 95.1845
1088, 24.1698
1089, -30.4252
1090, -67.4726
1091, -69.2376
1092, -55.7883
1093, -52.543
1094, -57.5465
1095, -68.6941
1096, -70.3047
1097, -60.0224
1098, -44.4741
1099, -26.8963
1100, -13.0547
1101, -6.9602
1102, -11.5675
1103, -14.0304
1104, -10.435
1105, -5.22282
1106, -0.987166
1107, -3.35501
1108, -6.60713
1109, -4.09674
1110, -7.27345
1111, -19.8521
1112, -22.6339
1113, -14.4063
1114, -4.81191
1115, 6.44384
1116, 20.7025
1117, 31.2885
1118, 33.6416
1119, 19.314
1120, -7.71454
1121, -21.6696
1122, -22.5566
1123, -13.299
1124, 3.99721
1125, 26.8228
1126, 25.7086
1127, 0.354072
1128, -3.87769
1129, 11.7429
1130, 34.3733
1131, 53.2104
1132, 60.3251
1133, 54.7056
1134, 41.0823
1135, 50.8314
1136, 80.727
1137, 107.256
1138, 118.675
1139, 106.377
1140, 97.9878
1141, 101.238
1142, 101.067
1143, 96.4048
1144, 90.0111
1145, 76.8481
1146, 52.7131
1147, 25.8394
1148, 4.25412
1149, -1.61874
1150, 0.601238
1151, -7.89611
1152, -10.5887
1153, 5.55666
1154, 12.835
1155, 6.5641
1156, 15.6483
1157, 28.4631
1158, 16.9613
1159, 8.85645
1160, 22.7362
1161, 17.6246
1162, -10.3647
1163, -29.66
1164, -38.6871
1165, -38.1873
1166, -24.3027
1167, 3.41168
1168, 17.5146
1169, 14.0218
1170, 4.95629
1171, -1.97392
1172, 0.373394
1173, 5.29143
1174, 11.1646
1175, 26.6626
1176, 48.3461
1177, 57.5477
1178, 68.419
1179, 93.3067
1180, 108.12
1181, 108.213
1182, 111.497
1183, 113.151
1184, 100.69
1185, 80.4398
1186, 57.0064
1187, 34.2105
1188, 17.6457
1189, 9.53043
1190, 10.7462
1191, 22.1335
1192, 19.8907
1193, -1.03859
1194, -15.2581
1195, -22.4744
1196, -27.813
1197, -24.3423
1198, -8.38333
1199, -0.453457
1200, -1.75971
1201, 0.531911
1202, 8.16066
1203, 22.3683
1204, 39.7753
1205, 54.7141
1206, 42.4783
1207, 17.7349
1208, 17.7987
1209, 28.1502
1210, 37.3548
1211, 50.9341
1212, 63.5782
1213, 55.7907
1214, 36.7057
1215, 17.1355
1216, -0.324361
1217, -15.475
1218, -22.7628
1219, -18.4742
1220, 2.60595
1221, 10.6454
1222, -5.24115
1223, -7.99275
1224, 1.78985
1225, 9.77722
1226, 9.68137
1227, -1.39912
1228, -12.8795
1229, -19.0316
1230, -8.16837
1231, 5.77011
1232, 7.91107
1233, -0.925117
1234, -12.7761
1235, 1.35559
1236, 22.2848
1237, 19.2907
1238, 12.6654
1239, 15.0271
1240, 39.4213
1241, 71.1924
1242, 84.9855
1243, 71.346
1244, 30.766
1245, 0.100683
1246, -10.8753
1247, 10.6427
1248, 46.5292
1249, 80.1412
1250, 93.8252
1251, 84.5186
1252, 54.0521
1253, 28.2607
1254, 29.6872
1255, 61.0333
1256, 106.935
1257, 131.661
1258, 119.893
1259, 65.0039
1260, 19.9934
1261, 3.20854
1262, 17.912
1263, 46.9207
1264, 69.3883
1265, 71.8498
1266, 56.3276
1267, 42.3351
1268, 29.4139
1269, 15.7524
1270, 4.79437
1271, -1.16394
1272, 6.6235
1273, 20.8594
1274, 31.1945
1275, 29.6207
1276, 17.9351
1277, 10.5152
1278, 5.63667
1279, -0.10285
1280, 6.74093
1281, 21.8268
1282, 14.4412
1283, 0.875384
1284, -2.44352
1285, -14.7683
1286, -27.1768
1287, 6.15548
1288, 45.6345
1289, 52.5495
1290, 55.2691
1291, 51.7245
1292, 15.827
1293, -12.867
1294, -8.65517
1295, 7.90838
1296, 29.5322
1297, 45.7592
1298, 49.8125
1299, 38.6743
1300, 21.5844
1301, 5.74315
1302, 2.40822
1303, 0.871094
1304, -3.98839
1305, -6.4668
1306, -5.22833
1307, 0.7013
1308, 8.30006
1309, 13.8595
1310, 8.39304
1311, -5.83879
1312, -23.6437
1313, -23.5116
1314, -6.01299
1315, -0.948655
1316, 1.65999
1317, 12.6968
1318, 17.2263
1319, 16.4176
1320, 23.933
1321, 20.8823
1322, -0.0177224
1323, 9.46207
1324, 39.4238
1325, 49.7723
1326, 50.956
1327, 46.2501
1328, 23.1695
1329, -1.61689
1330, -4.17726
1331, 3.89599
1332, 14.2874
1333, 9.91471
1334, 1.152
1335, -2.59646
1336, -11.215
1337, -19.3509
1338, -9.38313
1339, -5.45429
1340, -15.2825
1341, -3.99437
1342, 17.4645
1343, 24.9607
1344, 26.674
1345, 23.2902
1346, 6.89643
1347, -3.11482
1348, 5.99769
1349, 11.5967
1350, 12.1691
1351, 16.3207
1352, 9.6628
1353, -6.18876
1354, 4.5187
1355, 22.0192
1356, 18.3432
1357, 31.8858
1358, 57.5147
1359, 57.7294
1360, 56.5543
1361, 64.8259
1362, 46.5663
1363, 21.488
1364, 27.7651
1365, 28.4147
1366, 14.6034
1367, 0.122873
1368, -3.10865
1369, 11.3313
1370, 25.7276
1371, 34.6231
1372, 36.4937
1373, 22.7249
1374, 4.63809
1375, 32.5941
1376, 49.23
1377, 14.4652
1378, 0.53725
1379, 4.3411
1380, 0.339565
1381, 18.684
1382, 58.664
1383, 67.9215
1384, 74.9823
1385, 98.1677
1386, 85.3705
1387, 46.0834
1388, 12.1173
1389, -7.24887
1390, -12.5349
1391, -8.65717
1392, -1.90221
1393, 6.00285
1394, 28.024
1395, 48.2837
1396, 43.984
1397, 28.9796
1398, 11.4419
1399, 2.02938
1400, -0.479824
1401, -0.22642
1402, -13.1459
1403, -26.607
1404, -25.3053
1405, -11.2585
1406, 10.4622
1407, 30.6447
1408, 50.0801
1409, 62.5141
1410, 44.2817
1411, 23.9756
1412, 19.8112
1413, 6.72964
1414, -5.53743
1415, -2.14421
1416, 0.839692
1417, -0.917058
1418, -7.03669
1419, -11.0422
1420, -11.4296
1421, -13.7442
1422, -6.30948
1423, 16.0196
1424, 18.9592
1425, 16.6927
1426, 36.3813
1427, 50.2541
1428, 51.662
1429, 42.6991
1430, 21.4666
1431, -2.73853
1432, 4.72292
1433, 18.8789
1434, 18.732
1435, 5.21454
1436, -10.6093
1437, -16.4723
1438, 3.00124
1439, 35.8127
1440, 49.2521
1441, 39.1275
1442, 15.412
1443, 9.80696
1444, 12.6347
1445, 17.1367
1446, 17.5633
1447, 11.1191
1448, 2.42686
1449, 23.2245
1450, 51.1533
1451, 53.4177
1452, 41.3227
1453, 22.5881
1454, 7.16725
1455, 16.6081
1456, 41.4031
1457, 35.8735
1458, 9.4247
1459, -18.0545
1460, -3.75642
1461, 16.3547
1462, 17.4575
1463, 13.2336
1464, 3.01957
1465, -11.0765
1466, 14.7361
1467, 52.1119
1468, 52.5512
1469, 59.9121
1470, 69.782
1471, 57.3813
1472, 57.7238
1473, 71.1883
1474, 72.6389
1475, 81.2032
1476, 91.7222
1477, 65.0229
1478, 37.3933
1479, 31.3377
1480, 37.2443
1481, 45.2491
1482, 49.2136
1483, 39.5401
1484, 21.5129
1485, 2.29764
1486, -8.88967
1487, -12.8061
1488, -11.4355
1489, -7.60283
1490, -2.50386
1491, 2.53278
1492, 3.0879
1493, -0.142637
1494, -3.36415
1495, -2.36329
1496, -1.27405
1497, -9.23846
1498, -10.5869
1499, -4.73331
1500, -1.3193
1501, 6.77414
1502, 18.2974
1503, 21.4444
1504, 33.2422
1505, 53.3943
1506, 59.57
1507, 36.5386
1508, -5.35466
1509, -14.7513
1510, -3.13838
1511, 19.8304
1512, 43.0592
1513, 34.0026
1514, -6.65474
1515, -11.5638
1516, -3.63795
1517, 2.82743
1518, 18.2447
1519, 17.4597
1520, -5.28382
1521, -5.7496
1522, 6.27797
1523, 18.7861
1524, 17.2762
1525, 10.3246
1526, 5.4562
1527, 5.09386
1528, 11.7256
1529, 20.9482
1530, 9.35681
1531, -2.78809
1532, -3.4318
1533, -9.03875
1534, -12.5521
1535, -8.21663
1536, 2.33458
1537, 11.0826
1538, 11.5668
1539, 2.93311
1540, -5.04007
1541, -7.05498
1542, -3.72591
1543, 0.71715
1544, 3.01204
1545, 0.274387
1546, 3.82954
1547, 14.5857
1548, 12.1075
1549, -3.74722
1550, -21.0315
1551, -7.91251
1552, 14.9642
1553, 35.7485
1554, 50.1989
1555, 35.3421
1556, 1.64291
1557, -5.28855
1558, -22.7049
1559, -44.9096
1560, -31.9156
1561, -23.8349
1562, -23.1372
1563, -13.0191
1564, -16.5065
1565, -24.4252
1566, -12.9932
1567, 17.4644
1568, 55.704
1569, 91.0587
1570, 148.395
1571, 228.836
1572, 308.305
1573, 384.992
1574, 442.01
1575, 475.077
1576, 524.522
1577, 572.755
1578, 596.654
1579, 567.094
1580, 508.477
1581, 438.461
1582, 367.154
1583, 290.323
1584, 211.051
1585, 140.131
1586, 92.596
1587, 55.8147
1588, 14.2375
1589, -24.2805
1590, -43.8471
1591, -31.0219
1592, -17.0323
1593, -16.4103
1594, -33.3753
1595, -48.1136
1596, -43.7788
1597, -19.1654
1598, -1.58856
1599, 13.1292
1600, 25.6751
1601, 31.7797
1602, 25.0964
1603, 10.3019
1604, -0.387847
1605, -8.29621
1606, 3.21653
1607, 42.0872
1608, 33.2892
1609, 22.449
1610, 35.8313
1611, 9.67218
1612, -3.36591
1613, 7.39215
1614, 0.246259
1615, 15.4874
1616, 37.0483
1617, 16.4745
1618, -7.32135
1619, -7.23053
1620, 26.6997
1621, 40.556
1622, 31.285
1623, 5.05136
1624, -26.2164
1625, -16.8845
1626, 24.7438
1627, 38.2225
1628, 36.6018
1629, 20.3715
1630, -8.05271
1631, -5.86722
1632, 11.9781
1633, 28.9729
1634, 40.0545
1635, 35.3068
1636, 13.192
1637, -14.7113
1638, -7.11382
1639, 18.3465
1640, 23.3882
1641, 13.2045
1642, -7.92157
1643, -25.4171
1644, -1.0289
1645, 12.6368
1646, 2.77973
1647, -7.15813
1648, -11.6112
1649, -3.47049
1650, 16.2384