File: Raman_Spectroscopy_GAN/input/clinical_sample/s2/s2_2_785M-T_Rlab.csv
a,b
320, 0.343438
321, 6.78651
322, 14.4439
323, 27.8967
324, 48.5776
325, 73.8427
326, 103.195
327, 134.708
328, 167.713
329, 197.58
330, 223.106
331, 242.593
332, 255.109
333, 259.083
334, 252.532
335, 237.696
336, 220.77
337, 203.466
338, 194.186
339, 193.776
340, 190.843
341, 181.048
342, 166.801
343, 150.086
344, 133.767
345, 123.146
346, 117.999
347, 116.983
348, 119.193
349, 117.411
350, 109.983
351, 101.518
352, 94.3917
353, 88.608
354, 84.1711
355, 78.0004
356, 62.7065
357, 39.336
358, 14.8065
359, -7.56866
360, -18.795
361, -16.6241
362, -6.09237
363, 10.5611
364, 26.881
365, 33.1915
366, 31.8568
367, 29.6405
368, 26.8292
369, 22.7513
370, 17.2887
371, 10.3041
372, 1.78261
373, -4.19886
374, -5.55281
375, -0.865748
376, 12.6111
377, 30.1448
378, 37.5708
379, 34.5118
380, 24.2082
381, 7.80045
382, -5.3245
383, -12.4354
384, -10.9422
385, 1.54404
386, 16.5848
387, 20.3335
388, 16.8454
389, 17.5754
390, 20.7766
391, 13.1772
392, -5.64119
393, -14.9834
394, -9.41243
395, -3.22132
396, -4.64648
397, -4.0368
398, 10.5196
399, 36.4613
400, 66.8989
401, 96.8323
402, 122.006
403, 142.239
404, 160.742
405, 178.523
406, 201.801
407, 233.519
408, 268.544
409, 302.203
410, 329.992
411, 343.877
412, 347.859
413, 355.691
414, 367.995
415, 381.784
416, 396.29
417, 407.891
418, 415.365
419, 419.055
420, 419.177
421, 418
422, 418.25
423, 413.427
424, 389.077
425, 350.752
426, 322.987
427, 307.101
428, 293.011
429, 278.368
430, 259.522
431, 235.042
432, 204.279
433, 166.776
434, 130.62
435, 106.555
436, 90.6871
437, 73.645
438, 54.9591
439, 34.3367
440, 16.1136
441, 6.00081
442, 4.68817
443, 13.1016
444, 32.3498
445, 45.1551
446, 40.6885
447, 28.9205
448, 22.2864
449, 19.9216
450, 19.8563
451, 22.4971
452, 29.6342
453, 39.944
454, 43.1945
455, 37.9488
456, 31.5154
457, 26.3395
458, 23.6781
459, 24.2365
460, 21.6788
461, 9.77038
462, -5.03169
463, -12.0899
464, -12.9092
465, -10.431
466, -5.15987
467, 0.607734
468, 6.2886
469, 4.69878
470, -5.28336
471, -11.6447
472, -10.0076
473, -1.92911
474, 12.2597
475, 25.3877
476, 29.0051
477, 24.7361
478, 15.7153
479, 4.82208
480, 0.788667
481, 3.08744
482, 5.25054
483, 6.17489
484, 4.07532
485, -1.19931
486, -3.85986
487, -1.87506
488, 1.16288
489, 3.14768
490, 0.111517
491, -12.016
492, -24.75
493, -22.5414
494, -10.208
495, -1.13604
496, 4.44269
497, 5.74556
498, 3.82559
499, 6.36511
500, 15.937
501, 43.7061
502, 95.0175
503, 140.638
504, 168.294
505, 188.332
506, 208.797
507, 235.309
508, 274.966
509, 326.587
510, 387.798
511, 452.328
512, 501.54
513, 537.437
514, 575.136
515, 615.102
516, 646.5
517, 667.266
518, 679.731
519, 684.483
520, 676.814
521, 654.565
522, 629.99
523, 611.891
524, 585.313
525, 533.477
526, 467.673
527, 407.196
528, 352.188
529, 302.193
530, 256.963
531, 215.66
532, 175.94
533, 125.029
534, 64.2286
535, 29.8692
536, 24.6228
537, 31.4757
538, 45.0726
539, 52.8533
540, 50.0663
541, 39.3463
542, 22.6393
543, 7.80669
544, 4.34474
545, 6.92096
546, 7.68035
547, 8.3048
548, 12.844
549, 20.0996
550, 28.3326
551, 36.4443
552, 39.8905
553, 38.5607
554, 35.7714
555, 32.361
556, 30.5181
557, 30.9108
558, 34.7548
559, 42.2053
560, 39.2124
561, 18.3129
562, -2.00721
563, -8.04569
564, -8.71256
565, -13.0298
566, -15.7361
567, -8.44501
568, 2.47718
569, 2.87806
570, -2.2829
571, 2.1512
572, 13.0353
573, 13.718
574, 4.66843
575, -2.76256
576, -7.32685
577, -10.6409
578, -12.7264
579, -7.482
580, 6.40816
581, 11.0135
582, -0.210275
583, -8.47796
584, -5.25353
585, 3.11345
586, 13.0143
587, 25.8722
588, 43.2439
589, 53.1573
590, 40.9843
591, 20.8968
592, 15.923
593, 19.9804
594, 19.5399
595, 15.7133
596, 12.7369
597, 9.11193
598, -1.32033
599, -14.8476
600, -12.6288
601, 4.19262
602, 13.6463
603, 12.4237
604, 9.65513
605, 7.49321
606, 7.41607
607, 9.8799
608, 15.4871
609, 24.1459
610, 27.2236
611, 20.8872
612, 9.77656
613, -3.41197
614, -11.1279
615, -8.49239
616, -3.00841
617, -1.19494
618, -0.570692
619, 1.60112
620, 8.31732
621, 23.4655
622, 40.3836
623, 47.0025
624, 45.8759
625, 43.1797
626, 38.7642
627, 31.6301
628, 25.7463
629, 34.2459
630, 52.1945
631, 55.9749
632, 46.3898
633, 39.1199
634, 34.9523
635, 26.2335
636, 13.5676
637, 12.0893
638, 22.5443
639, 26.1667
640, 20.1369
641, 21.8181
642, 35.2681
643, 45.0133
644, 45.9087
645, 41.6091
646, 33.5543
647, 20.6816
648, 2.79951
649, -4.94653
650, 4.65884
651, 16.5925
652, 20.1679
653, 20.1124
654, 19.9553
655, 20.137
656, 21.0411
657, 24.3427
658, 31.7487
659, 34.1769
660, 20.8676
661, 5.60659
662, 7.20515
663, 13.256
664, 4.31624
665, -10.0485
666, -13.6342
667, -10.3884
668, -7.71346
669, -3.06738
670, 9.51073
671, 22.9165
672, 18.3738
673, 4.00739
674, 4.84884
675, 17.4455
676, 26.3361
677, 31.0879
678, 33.6817
679, 35.2525
680, 39.3857
681, 46.0453
682, 53.7491
683, 60.8004
684, 60.4087
685, 53.2392
686, 46.3527
687, 42.497
688, 51.2078
689, 70.4522
690, 80.8261
691, 80.0098
692, 72.583
693, 58.9623
694, 36.7042
695, 8.27518
696, -4.57196
697, -0.753751
698, 6.57386
699, 14.9484
700, 20.8021
701, 23.0429
702, 17.7511
703, 5.48946
704, 0.113395
705, 3.81214
706, 4.8362
707, 0.849833
708, -1.5913
709, -0.294121
710, 11.3163
711, 35.2415
712, 59.6678
713, 80.9789
714, 92.1567
715, 91.8871
716, 89.0624
717, 86.976
718, 93.8944
719, 111.011
720, 121.622
721, 121.358
722, 119.773
723, 119.229
724, 112.09
725, 96.5622
726, 80.1401
727, 64.6529
728, 43.67
729, 16.8417
730, 6.94325
731, 17.4636
732, 22.5996
733, 16.0552
734, 13.9463
735, 19.5263
736, 14.2241
737, -5.20026
738, -14.0055
739, -7.49859
740, -3.05215
741, -4.28563
742, -1.44567
743, 7.66349
744, 15.7414
745, 20.6622
746, 20.5329
747, 15.3638
748, 9.45775
749, 4.93676
750, 11.5462
751, 29.1588
752, 44.2668
753, 52.8712
754, 46.7993
755, 26.5713
756, 6.88541
757, -8.31517
758, -12.4263
759, -6.60132
760, -2.12943
761, 0.373278
762, 5.74586
763, 16.1604
764, 35.7453
765, 61.0056
766, 73.2419
767, 71.5154
768, 61.396
769, 46.5067
770, 38.2492
771, 38.0497
772, 47.0312
773, 60.2094
774, 61.7032
775, 54.4635
776, 50.0937
777, 49.6926
778, 54.2656
779, 59.4543
780, 55.1275
781, 42.4504
782, 24.6467
783, 7.73055
784, 3.32846
785, 7.22679
786, 13.3024
787, 18.3085
788, 18.7644
789, 22.1224
790, 37.7318
791, 56.2846
792, 67.6857
793, 64.9997
794, 41.8681
795, 15.8383
796, 0.833274
797, -3.21174
798, 3.05636
799, 11.9271
800, 18.0654
801, 16.3485
802, 4.97165
803, 3.71456
804, 19.9137
805, 37.6555
806, 50.5543
807, 49.9188
808, 34.8967
809, 24.9468
810, 24.5401
811, 28.09
812, 33.3361
813, 33.5288
814, 28.0062
815, 19.8204
816, 10.1237
817, 1.98749
818, -3.32777
819, -3.82516
820, -1.01106
821, 0.381714
822, 2.74717
823, 12.6721
824, 20.5607
825, 7.03526
826, -11.8609
827, -10.0248
828, 1.97121
829, 10.527
830, 22.6492
831, 43.7997
832, 58.4587
833, 53.9848
834, 46.87
835, 47.7199
836, 48.2979
837, 44.6574
838, 45.1552
839, 52.7211
840, 59.0172
841, 62.4233
842, 74.7662
843, 96.4373
844, 107.252
845, 104.88
846, 99.268
847, 91.912
848, 82.6322
849, 75.3893
850, 83.2925
851, 93.7049
852, 71.682
853, 32.0433
854, 7.60684
855, -1.69999
856, 0.566028
857, 12.8896
858, 33.2225
859, 46.3729
860, 39.6888
861, 26.5884
862, 15.6042
863, 8.40065
864, 5.5002
865, 2.73744
866, -1.24464
867, -0.0982112
868, 7.80932
869, 20.1888
870, 35.7687
871, 50.3562
872, 58.8812
873, 44.5128
874, 16.9038
875, 7.34887
876, 10.6865
877, 10.2932
878, 10.4021
879, 18.0989
880, 25.1808
881, 22.8029
882, 19.1366
883, 20.1083
884, 14.9511
885, -1.22901
886, -9.4587
887, -3.73553
888, 8.77745
889, 24.2773
890, 28.3424
891, 21.0053
892, 16.5356
893, 16.8958
894, 22.2389
895, 29.5505
896, 31.4508
897, 27.179
898, 15.9978
899, 3.08068
900, -5.0649
901, -6.00318
902, 2.58249
903, 12.7805
904, 19.5229
905, 23.3326
906, 24.8364
907, 28.4779
908, 34.9312
909, 40.9381
910, 43.2463
911, 30.562
912, 8.84554
913, -1.1456
914, -0.124291
915, 8.28951
916, 20.0131
917, 29.7516
918, 33.4848
919, 27.886
920, 17.6717
921, 6.1401
922, 5.8743
923, 20.0603
924, 34.9077
925, 47.3927
926, 59.4403
927, 66.6334
928, 51.2191
929, 26.1169
930, 27.5453
931, 42.2337
932, 45.7271
933, 42.7382
934, 38.4938
935, 29.7377
936, 14.7794
937, 4.01467
938, 1.55809
939, -0.541467
940, -3.07333
941, 3.25789
942, 18.1646
943, 31.5341
944, 43.687
945, 57.7468
946, 67.5479
947, 63.2495
948, 50.5899
949, 35.2015
950, 20.5629
951, 8.8324
952, 2.20417
953, 1.6554
954, 6.64161
955, 15.0553
956, 13.9322
957, 9.20597
958, 24.7534
959, 49.0287
960, 59.0447
961, 54.6847
962, 36.5319
963, 15.1233
964, -2.1102
965, -7.29706
966, 2.14065
967, 24.9615
968, 55.5927
969, 68.8986
970, 65.6922
971, 59.7312
972, 45.994
973, 13.1843
974, -14.5578
975, -11.8959
976, 4.15256
977, 24.0121
978, 43.0073
979, 57.5152
980, 50.8408
981, 25.4712
982, 9.43199
983, 4.46104
984, 6.62023
985, 10.6796
986, 9.57122
987, 3.36517
988, -7.14365
989, -11.5461
990, -5.66519
991, -1.43575
992, -1.62661
993, -3.76797
994, -1.16596
995, 27.4074
996, 73.8432
997, 119.879
998, 154.177
999, 165.679
1000, 166.001
1001, 162.333
1002, 163.369
1003, 167.009
1004, 141.894
1005, 91.2386
1006, 45.1772
1007, 10.5872
1008, -3.03937
1009, -2.8198
1010, 4.89134
1011, 16.0564
1012, 29.1324
1013, 43.1462
1014, 57.7725
1015, 69.8543
1016, 77.1126
1017, 73.9666
1018, 69.8097
1019, 81.8841
1020, 103.522
1021, 128.071
1022, 147.616
1023, 157.323
1024, 147.096
1025, 119.6
1026, 100.838
1027, 91.2863
1028, 83.2402
1029, 77.9406
1030, 77.4952
1031, 63.2034
1032, 24.162
1033, -1.92692
1034, -4.85564
1035, -9.61202
1036, -17.4158
1037, -15.2236
1038, -7.05103
1039, -1.95704
1040, 5.97364
1041, 21.4648
1042, 26.4012
1043, 14.2376
1044, 2.5411
1045, -3.51661
1046, -0.421384
1047, 6.69485
1048, 5.05388
1049, -5.01709
1050, -22.8871
1051, -37.8915
1052, -44.3738
1053, -37.5175
1054, -20.3341
1055, -15.7473
1056, -19.9302
1057, -17.8308
1058, -16.8005
1059, -26.0807
1060, -29.2676
1061, -18.1499
1062, -5.27151
1063, 11.4074
1064, 55.4454
1065, 127.173
1066, 217.421
1067, 347.2
1068, 509.153
1069, 698.861
1070, 912.219
1071, 1131.35
1072, 1350.61
1073, 1565.99
1074, 1773.44
1075, 1965.42
1076, 2125.92
1077, 2239.09
1078, 2295.76
1079, 2293.75
1080, 2250.06
1081, 2167.83
1082, 2044.81
1083, 1881.61
1084, 1679.71
1085, 1451.21
1086, 1206.41
1087, 961.728
1088, 727.285
1089, 527.717
1090, 361.885
1091, 215.511
1092, 114.418
1093, 54.4818
1094, 9.60727
1095, -33.3557
1096, -51.7411
1097, -46.793
1098, -44.2145
1099, -42.3654
1100, -33.2124
1101, -27.9824
1102, -35.137
1103, -34.2119
1104, -19.7033
1105, -4.9898
1106, 6.58167
1107, 9.28973
1108, 6.27043
1109, 1.90653
1110, 9.17676
1111, 31.0635
1112, 40.7841
1113, 33.9709
1114, 16.1554
1115, -2.4815
1116, -7.46178
1117, -1.91581
1118, 11.0241
1119, 9.68009
1120, -6.15952
1121, -12.2908
1122, -11.1496
1123, -10.9596
1124, -3.77392
1125, 16.0086
1126, 30.1869
1127, 34.0651
1128, 34.6742
1129, 34.4279
1130, 36.4201
1131, 45.098
1132, 63.8537
1133, 86.7558
1134, 110.119
1135, 125.806
1136, 136.781
1137, 152.37
1138, 156.641
1139, 136.247
1140, 119.133
1141, 113.519
1142, 106.362
1143, 98.5745
1144, 96.6955
1145, 88.9959
1146, 66.0091
1147, 52.7373
1148, 52.8937
1149, 37.0242
1150, 11.3382
1151, -0.449969
1152, -5.4318
1153, -9.43262
1154, -8.2107
1155, -2.94243
1156, -6.86758
1157, -13.8861
1158, -8.73697
1159, 10.4261
1160, 42.5335
1161, 55.0105
1162, 41.5036
1163, 15.6078
1164, -9.26077
1165, -14.5711
1166, -1.87132
1167, 26.0108
1168, 38.4818
1169, 33.442
1170, 28.3651
1171, 32.0361
1172, 50.3244
1173, 67.4107
1174, 78.5154
1175, 91.9054
1176, 106.233
1177, 114.415
1178, 132.446
1179, 173.46
1180, 204.522
1181, 218.259
1182, 234.431
1183, 242.389
1184, 219.214
1185, 199.544
1186, 201.753
1187, 188.144
1188, 155.662
1189, 123.659
1190, 89.3924
1191, 49.1728
1192, 31.8318
1193, 46.2975
1194, 53.2821
1195, 46.8033
1196, 26.0125
1197, 1.17685
1198, -18.7053
1199, -19.7398
1200, -3.84125
1201, 10.4868
1202, 20.5773
1203, 24.8082
1204, 26.8716
1205, 28.1133
1206, 27.2583
1207, 25.5197
1208, 25.6309
1209, 28.0647
1210, 32.1346
1211, 29.1063
1212, 18.5751
1213, 5.53871
1214, -2.21005
1215, 2.29036
1216, 10.1797
1217, 15.3572
1218, 6.87963
1219, -5.38509
1220, -4.88824
1221, 3.22177
1222, 15.5439
1223, 24.9094
1224, 25.572
1225, 7.97034
1226, -4.90125
1227, 0.836914
1228, 2.53922
1229, -0.296742
1230, 7.24373
1231, 9.52091
1232, -7.51267
1233, -6.74266
1234, 15.4415
1235, 24.1326
1236, 21.5443
1237, 15.1736
1238, 2.10967
1239, -13.6147
1240, 2.78312
1241, 40.1411
1242, 72.1411
1243, 94.2102
1244, 107.107
1245, 115.88
1246, 125.703
1247, 145.336
1248, 172.034
1249, 204.297
1250, 245.551
1251, 288.982
1252, 316.424
1253, 332.518
1254, 342.527
1255, 357.421
1256, 375.946
1257, 387.203
1258, 394.395
1259, 400.752
1260, 405.659
1261, 412.834
1262, 434.019
1263, 452.99
1264, 455.712
1265, 467.98
1266, 487.174
1267, 479.949
1268, 464.234
1269, 458.094
1270, 427.781
1271, 377.321
1272, 355.206
1273, 346.238
1274, 331.964
1275, 328.79
1276, 331.585
1277, 306.068
1278, 278.38
1279, 276.014
1280, 274.56
1281, 263.421
1282, 232.77
1283, 201.353
1284, 186.1
1285, 164.444
1286, 135.532
1287, 116.578
1288, 93.2818
1289, 55.7611
1290, 49.4272
1291, 68.4103
1292, 64.6735
1293, 49.4604
1294, 33.0693
1295, 11.6783
1296, -9.72632
1297, -21.9673
1298, -19.0969
1299, 0.499477
1300, 15.5928
1301, 18.9511
1302, 5.67613
1303, -8.80943
1304, -15.9092
1305, -12.3114
1306, 0.778392
1307, 20.6793
1308, 38.752
1309, 48.4547
1310, 37.7595
1311, 16.8464
1312, 1.23067
1313, -5.5418
1314, -2.60948
1315, 11.4709
1316, 24.7446
1317, 25.7639
1318, 21.5046
1319, 16.0147
1320, 14.859
1321, 10.2762
1322, 0.45801
1323, 13.8276
1324, 39.8075
1325, 47.4208
1326, 45.0804
1327, 36.7718
1328, 19.0725
1329, 3.52293
1330, 5.39295
1331, 2.7326
1332, -2.58661
1333, 19.8863
1334, 41.3978
1335, 36.0181
1336, 20.767
1337, 0.619318
1338, -21.8327
1339, -19.6335
1340, 15.6827
1341, 40.7588
1342, 44.6723
1343, 23.5546
1344, 14.8118
1345, 23.9088
1346, 23.3147
1347, 21.3945
1348, 24.4379
1349, 9.3754
1350, -11.174
1351, -2.70151
1352, 6.1538
1353, 6.52011
1354, 28.0046
1355, 52.163
1356, 53.5178
1357, 43.9785
1358, 26.4298
1359, -0.727507
1360, -12.5313
1361, 1.64767
1362, 16.5078
1363, 28.0833
1364, 36.6404
1365, 31.9347
1366, 17.4104
1367, 15.4074
1368, 13.9422
1369, 5.03762
1370, 5.76578
1371, 12.0594
1372, 11.7454
1373, 17.8431
1374, 28.6131
1375, 20.2801
1376, 1.40533
1377, -15.6109
1378, -5.57563
1379, 19.1494
1380, 27.3508
1381, 29.4931
1382, 26.6628
1383, 7.66968
1384, 1.03216
1385, 22.8304
1386, 31.6719
1387, 29.1765
1388, 30.6941
1389, 36.5257
1390, 43.2718
1391, 40.5496
1392, 37.7959
1393, 39.6225
1394, 31.2386
1395, 30.4019
1396, 57.921
1397, 75.2247
1398, 82.4796
1399, 108.161
1400, 136.213
1401, 156.883
1402, 170.944
1403, 172.893
1404, 160.88
1405, 172.412
1406, 201.784
1407, 220.343
1408, 221.73
1409, 208.031
1410, 194.222
1411, 189.042
1412, 192.02
1413, 167.447
1414, 128.624
1415, 102.187
1416, 102.778
1417, 116.737
1418, 104.24
1419, 69.3187
1420, 24.812
1421, 10.8071
1422, 15.0992
1423, 24.4621
1424, 23.4979
1425, 12.7882
1426, -2.48771
1427, -9.84839
1428, -11.5615
1429, -18.7012
1430, -16.8101
1431, -3.81258
1432, 3.45842
1433, 4.87625
1434, 1.33279
1435, -6.17059
1436, -9.49167
1437, -0.684559
1438, 3.09254
1439, 2.271
1440, 5.36188
1441, 6.43537
1442, 5.31582
1443, 7.88314
1444, 12.1417
1445, 15.9139
1446, 14.3935
1447, 19.8276
1448, 37.1612
1449, 33.5496
1450, 20.0956
1451, 16.6951
1452, 17.9801
1453, 22.3754
1454, 28.5598
1455, 21.3632
1456, 2.85589
1457, -7.74991
1458, 1.69912
1459, 25.0921
1460, 17.1723
1461, 8.6751
1462, 16.6652
1463, 10.3141
1464, 4.97958
1465, 14.4536
1466, 4.22308
1467, -5.88372
1468, 13.9141
1469, 37.2446
1470, 56.1653
1471, 71.5586
1472, 79.12
1473, 78.4761
1474, 72.5921
1475, 74.8915
1476, 88.4883
1477, 105.677
1478, 119.663
1479, 124.183
1480, 109.041
1481, 89.4879
1482, 76.2308
1483, 67.1395
1484, 61.4017
1485, 58.2382
1486, 55.8571
1487, 50.844
1488, 40.8405
1489, 33.4983
1490, 24.8923
1491, 9.03584
1492, -1.06169
1493, -7.66056
1494, -16.4
1495, -7.62563
1496, 8.84056
1497, 4.02453
1498, -0.204519
1499, 6.08262
1500, 27.9443
1501, 42.6116
1502, 42.4681
1503, 31.1122
1504, 21.8591
1505, 19.0801
1506, 18.7343
1507, 11.8172
1508, 0.815443
1509, 6.10964
1510, 16.3443
1511, 20.651
1512, 5.77822
1513, -8.26807
1514, -8.56086
1515, 10.0306
1516, 22.4199
1517, 16.1006
1518, 6.06859
1519, 3.07579
1520, 12.1683
1521, 27.44
1522, 27.9818
1523, 7.32232
1524, -3.74302
1525, -2.10623
1526, 9.74502
1527, 20.455
1528, 27.599
1529, 32.0893
1530, 41.1213
1531, 42.7451
1532, 29.6036
1533, 8.98231
1534, 0.935209
1535, 14.7784
1536, 32.9725
1537, 33.5717
1538, 9.69261
1539, -12.1063
1540, -20.1066
1541, -10.9319
1542, 6.94865
1543, 10.504
1544, -5.18553
1545, -8.48611
1546, -15.7667
1547, -28.0211
1548, -13.4005
1549, 0.673376
1550, 5.4099
1551, 18.2307
1552, 15.0779
1553, -3.51864
1554, -5.46951
1555, -6.39347
1556, -10.6395
1557, -11.8974
1558, -16.9315
1559, -27.5847
1560, -41.3032
1561, -44.6445
1562, -37.9861
1563, -28.7859
1564, -11.0163
1565, 12.3249
1566, 35.3055
1567, 70.9299
1568, 116.19
1569, 168.667
1570, 265.119
1571, 390.342
1572, 537.912
1573, 696.952
1574, 864.55
1575, 1039.65
1576, 1221.96
1577, 1396.1
1578, 1548.76
1579, 1668.81
1580, 1769.04
1581, 1835.71
1582, 1813.15
1583, 1722.96
1584, 1581.32
1585, 1402.55
1586, 1204.04
1587, 989.761
1588, 762.117
1589, 561.649
1590, 405.45
1591, 294.643
1592, 179.236
1593, 92.3283
1594, 41.3935
1595, -0.389307
1596, -19.6488
1597, -18.0203
1598, -34.5562
1599, -33.6735
1600, -13.847
1601, -12.5705
1602, -19.9627
1603, -31.0932
1604, -41.1912
1605, -27.2378
1606, -2.32293
1607, 12.3891
1608, 13.957
1609, 10.7366
1610, 7.86251
1611, -0.563351
1612, -9.38105
1613, -12.8768
1614, -2.65388
1615, 15.9839
1616, 25.9901
1617, 6.57011
1618, -2.42847
1619, 1.90839
1620, 12.8122
1621, 28.5014
1622, 23.741
1623, -3.87898
1624, -7.42232
1625, -3.88151
1626, -2.94328
1627, -5.78057
1628, -1.03843
1629, 7.42932
1630, 9.21545
1631, 0.728968
1632, -10.4526
1633, -14.52
1634, 3.82976
1635, 15.4233
1636, 13.0253
1637, 12.2058
1638, -1.86787
1639, -12.0696
1640, 2.21165
1641, 5.20494
1642, 15.0841
1643, 36.6474
1644, 29.1688
1645, 34.1902
1646, 50.0229
1647, 39.7464
1648, 27.0893
1649, 11.6952
1650, -7.55257