File: Raman_Spectroscopy_GAN/input/clinical_sample/s1/s1_1_785M-T_Rlab.txt
a,b
320, 25.2983
321, 31.4791
322, 35.9728
323, 42.4262
324, 50.0001
325, 57.2209
326, 61.7469
327, 54.6572
328, 36.2961
329, 18.5636
330, 4.62739
331, 3.05025
332, 18.1177
333, 41.2453
334, 61.9579
335, 76.7312
336, 75.9515
337, 61.4804
338, 48.2915
339, 39.3629
340, 42.3618
341, 60.1695
342, 74.2326
343, 69.2852
344, 51.402
345, 31.8302
346, 14.0646
347, 12.2107
348, 25.4922
349, 35.1217
350, 36.8937
351, 34.9989
352, 31.5963
353, 27.3365
354, 22.9564
355, 20.2162
356, 23.3376
357, 29.5666
358, 24.0565
359, 6.43935
360, -0.681193
361, 8.49551
362, 16.0924
363, 10.8345
364, -0.402559
365, -8.2465
366, -12.8276
367, -12.9253
368, -7.76398
369, 7.20413
370, 31.9551
371, 43.6573
372, 34.5974
373, 19.5107
374, 8.55364
375, 5.03886
376, 14.3423
377, 31.429
378, 42.9132
379, 46.7304
380, 35.6192
381, 9.9054
382, -6.08437
383, -4.59858
384, 12.266
385, 43.4505
386, 69.8364
387, 64.4147
388, 36.4861
389, 12.2345
390, -5.85561
391, -13.037
392, -9.79572
393, -3.39525
394, 4.26607
395, 2.4037
396, -16.0581
397, -33.5184
398, -28.2267
399, -6.99263
400, 15.0331
401, 37.8389
402, 53.1144
403, 60.598
404, 65.6811
405, 69.9855
406, 88.8007
407, 119.045
408, 149.047
409, 168.183
410, 180.827
411, 194.781
412, 211.637
413, 236.139
414, 267.858
415, 301.608
416, 335.362
417, 352.219
418, 346.686
419, 337.134
420, 334.986
421, 337.248
422, 340.318
423, 341.688
424, 335.803
425, 322.834
426, 304.306
427, 281.879
428, 267.475
429, 263.031
430, 255.849
431, 240.937
432, 215.92
433, 179.127
434, 142.562
435, 122.179
436, 113.324
437, 104.765
438, 94.5368
439, 76.3722
440, 50.9735
441, 29.7253
442, 17.9586
443, 11.5541
444, 8.69865
445, 6.06602
446, 1.33088
447, -0.429911
448, 7.53107
449, 25.0298
450, 49.1211
451, 74.1565
452, 79.1764
453, 64.8114
454, 49.1237
455, 35.9116
456, 30.8002
457, 35.4676
458, 40.4669
459, 40.4972
460, 31.1804
461, 8.20867
462, -15.5229
463, -19.3317
464, -9.46165
465, -2.94899
466, -0.101647
467, 0.211449
468, -1.96036
469, -7.70987
470, -17.0795
471, -15.2428
472, 4.08342
473, 18.8817
474, 13.5249
475, 2.06552
476, 0.628086
477, 3.75101
478, 0.737055
479, -2.90845
480, 10.1952
481, 34.4821
482, 33.0176
483, 4.77651
484, -10.5301
485, -4.78234
486, 11.1299
487, 33.0382
488, 52.8403
489, 65.3853
490, 65.3886
491, 47.2503
492, 20.6404
493, 2.34061
494, -5.05235
495, 3.36958
496, 21.9283
497, 20.4481
498, -0.662442
499, -13.0875
500, -12.8833
501, -6.81842
502, 3.27328
503, 8.6628
504, 5.10519
505, 4.74535
506, 17.2688
507, 41.4947
508, 76.7505
509, 116.445
510, 155.795
511, 188.109
512, 193.67
513, 181.108
514, 196.626
515, 241.35
516, 279.951
517, 305.256
518, 318.727
519, 320.775
520, 309.776
521, 285.031
522, 257.587
523, 235.38
524, 216.492
525, 198.775
526, 180.974
527, 160.949
528, 144.683
529, 147.357
530, 161.837
531, 158.78
532, 137.965
533, 113.796
534, 89.1362
535, 69.4899
536, 56.0664
537, 52.7539
538, 53.1197
539, 49.0312
540, 36.4
541, 21.7204
542, 11.9691
543, 13.7923
544, 35.8191
545, 63.8872
546, 77.2233
547, 76.8258
548, 65.6824
549, 49.4068
550, 46.0632
551, 54.6314
552, 63.6076
553, 70.3113
554, 66.3169
555, 50.8384
556, 33.1869
557, 16.2692
558, 6.53823
559, 6.90946
560, 6.80749
561, -0.128662
562, -6.70356
563, -8.1567
564, -4.9393
565, 2.94442
566, 11.7451
567, 15.0127
568, 12.1778
569, 2.19259
570, -9.78417
571, -10.0206
572, 0.359603
573, 14.6902
574, 29.7493
575, 32.6096
576, 22.5761
577, 8.8974
578, -5.59781
579, -11.1169
580, -5.92978
581, -1.5429
582, -1.9908
583, -4.64499
584, -8.34696
585, -4.87492
586, 11.8422
587, 31.6764
588, 45.099
589, 46.2986
590, 28.1741
591, 5.25733
592, 1.13033
593, 11.9731
594, 28.67
595, 44.8536
596, 43.903
597, 28.6865
598, 12.7058
599, -0.782169
600, -2.30532
601, 6.46793
602, 9.29576
603, 3.65837
604, -8.26832
605, -25.3785
606, -32.6322
607, -26.3168
608, -11.2605
609, 11.4265
610, 24.224
611, 18.8571
612, 5.76549
613, -9.0466
614, -18.0684
615, -16.1809
616, -7.55809
617, 4.70117
618, 13.8675
619, 10.2114
620, 7.40842
621, 23.6528
622, 47.5818
623, 59.7735
624, 60.8465
625, 53.0371
626, 41.0831
627, 41.6076
628, 60.4695
629, 116.196
630, 191.239
631, 234.86
632, 246.157
633, 246.095
634, 242.194
635, 262.66
636, 308.15
637, 349.133
638, 378.471
639, 385.333
640, 368.839
641, 349.918
642, 335.23
643, 333.802
644, 347.562
645, 351.45
646, 335.786
647, 313.888
648, 292.122
649, 274.315
650, 262.467
651, 247.334
652, 223.036
653, 197.842
654, 177.921
655, 161.272
656, 146.151
657, 127.597
658, 100.551
659, 64.4633
660, 18.6831
661, -16.0002
662, -17.3482
663, 1.42754
664, 21.6947
665, 38.0125
666, 41.485
667, 31.4683
668, 7.01739
669, -16.5252
670, -9.06558
671, 17.3545
672, 29.1658
673, 25.6552
674, 9.2455
675, -12.8396
676, -20.4338
677, -14.7932
678, -1.86151
679, 16.2485
680, 29.0854
681, 35.8101
682, 37.0115
683, 35.6306
684, 44.3578
685, 59.538
686, 56.3735
687, 35.1444
688, 14.3724
689, -1.711
690, -4.43806
691, 4.87948
692, 11.6953
693, 13.1072
694, 6.87545
695, -5.451
696, -10.347
697, -6.01513
698, 4.25316
699, 19.0747
700, 24.564
701, 18.7334
702, 10.426
703, 3.57124
704, 5.10374
705, 16.4438
706, 32.7351
707, 54.0579
708, 76.9979
709, 101.616
710, 128.967
711, 159.346
712, 192.832
713, 228.421
714, 253.921
715, 267.119
716, 284.324
717, 309.859
718, 337.233
719, 363.842
720, 381.41
721, 387.848
722, 388.901
723, 387.088
724, 392.252
725, 406.086
726, 410.804
727, 400.482
728, 369.687
729, 319.276
730, 281.952
731, 266.13
732, 251.563
733, 231.372
734, 196.299
735, 145.174
736, 97.0721
737, 58.1156
738, 34.6651
739, 30.6935
740, 31.1774
741, 28.4749
742, 17.1318
743, -0.249201
744, -1.74742
745, 15.1339
746, 17.5375
747, -0.195252
748, -15.3022
749, -23.6066
750, -23.443
751, -13.9702
752, 7.79656
753, 39.9251
754, 54.8016
755, 49.764
756, 44.4175
757, 42.6032
758, 45.3072
759, 50.1781
760, 42.5214
761, 22.5604
762, 4.24173
763, -7.91399
764, -5.13138
765, 11.4455
766, 29.7637
767, 44.8181
768, 42.2337
769, 25.1274
770, 11.2216
771, 2.85567
772, 2.48063
773, 7.07665
774, 6.4999
775, 1.56858
776, -3.21982
777, -5.29029
778, 2.28118
779, 15.4622
780, 22.1967
781, 20.9886
782, 9.72347
783, -2.10382
784, 2.82711
785, 17.9111
786, 30.7117
787, 36.2232
788, 27.524
789, 11.2414
790, -4.27364
791, -9.28493
792, 6.65663
793, 27.4272
794, 35.9693
795, 37.8321
796, 37.4912
797, 43.161
798, 60.1722
799, 72.404
800, 70.5281
801, 59.1009
802, 40.7259
803, 23.0357
804, 9.91113
805, 12.7615
806, 33.7476
807, 45.1759
808, 39.95
809, 30.4506
810, 21.6342
811, 27.2739
812, 46.1363
813, 50.0202
814, 37.6387
815, 29.654
816, 26.8114
817, 18.9675
818, 9.70489
819, 17.2191
820, 30.749
821, 16.5273
822, -10.9504
823, -11.713
824, 8.45745
825, 35.448
826, 56.9702
827, 53.5288
828, 34.5739
829, 13.0252
830, -1.86844
831, -0.637826
832, 11.2926
833, 29.1842
834, 32.3869
835, 8.24977
836, -7.22794
837, 3.18607
838, 20.4254
839, 35.168
840, 38.6043
841, 28.4684
842, 11.5761
843, -6.87916
844, -2.24764
845, 24.7797
846, 39.1674
847, 37.8815
848, 31.2215
849, 24.3111
850, 32.6151
851, 49.832
852, 63.4517
853, 70.9031
854, 68.3297
855, 62.5773
856, 64.216
857, 74.7244
858, 95.6306
859, 105.032
860, 84.8558
861, 68.0685
862, 74.9739
863, 88.6356
864, 100.82
865, 109.211
866, 111.983
867, 98.4977
868, 70.6094
869, 62.8804
870, 77.2561
871, 88.0824
872, 91.1281
873, 84.2121
874, 68.252
875, 46.3772
876, 28.4818
877, 37.3745
878, 54.3665
879, 54.7373
880, 46.9984
881, 40.5774
882, 40.3602
883, 49.8431
884, 60.5737
885, 67.1714
886, 53.4958
887, 16.3661
888, -8.0534
889, -11.3942
890, -1.64265
891, 17.1573
892, 27.9531
893, 29.5563
894, 25.8339
895, 23.3472
896, 37.3
897, 56.6241
898, 61.0448
899, 50.2204
900, 24.2183
901, 0.236214
902, -7.96335
903, -2.4122
904, 15.5986
905, 23.3517
906, 13.4248
907, 0.490473
908, -10.1156
909, -10.5607
910, -0.916432
911, 12.9746
912, 24.6952
913, 17.7423
914, 4.71681
915, 12.8939
916, 33.018
917, 49.5127
918, 52.6097
919, 34.542
920, 23.0955
921, 35.6274
922, 56.8808
923, 81.2679
924, 102.346
925, 115.627
926, 104.422
927, 77.6779
928, 79.1624
929, 100.465
930, 110.386
931, 112.396
932, 114.552
933, 113.65
934, 106.363
935, 104.435
936, 114.458
937, 110.768
938, 85.2083
939, 67.8595
940, 66.0262
941, 73.6403
942, 87.9862
943, 102.677
944, 110.093
945, 93.1398
946, 68.0056
947, 61.1591
948, 55.717
949, 35.5523
950, 15.1036
951, 4.28834
952, 1.18913
953, 5.99319
954, 26.1783
955, 54.9838
956, 54.0413
957, 29.0415
958, 12.8579
959, 6.32446
960, 7.4191
961, 9.96411
962, 7.7079
963, 2.26185
964, -4.72151
965, -6.35227
966, 0.11981
967, 13.3279
968, 27.7912
969, 17.5694
970, -7.83752
971, -8.17593
972, 8.0618
973, 20.2761
974, 25.3847
975, 20.5852
976, 10.39
977, -1.62065
978, -2.03979
979, 11.9018
980, 20.9856
981, 20.2379
982, 6.82716
983, -10.1891
984, -7.06417
985, 6.39177
986, 13.1188
987, 9.73788
988, -6.03891
989, -18.7854
990, -21.9155
991, -16.5319
992, -4.05034
993, 6.75228
994, 15.1802
995, 20.0134
996, 24.5708
997, 35.1041
998, 45.9133
999, 50.9309
1000, 48.1536
1001, 37.4979
1002, 33.7475
1003, 40.5439
1004, 50.6377
1005, 58.0712
1006, 46.7991
1007, 24.5977
1008, 9.13999
1009, 4.88184
1010, 14.5196
1011, 32.3366
1012, 51.8984
1013, 56.836
1014, 46.5829
1015, 48.6582
1016, 62.2609
1017, 70.1845
1018, 70.6352
1019, 62.7177
1020, 56.3396
1021, 60.5655
1022, 73.9076
1023, 93.0765
1024, 91.3829
1025, 66.3342
1026, 40.2607
1027, 23.3377
1028, 36.508
1029, 61.5507
1030, 75.1725
1031, 72.2279
1032, 50.4431
1033, 31.3447
1034, 22.573
1035, 21.876
1036, 24.9028
1037, 18.1091
1038, 6.82697
1039, 3.58272
1040, 10.0988
1041, 26.9378
1042, 32.6009
1043, 19.1619
1044, 6.01349
1045, -1.63064
1046, -1.76551
1047, 2.01482
1048, 1.74567
1049, -0.933597
1050, -3.99494
1051, -1.21209
1052, 10.2207
1053, 19.731
1054, 22.4921
1055, 9.58505
1056, -9.13309
1057, -8.52383
1058, 7.62868
1059, 34.6517
1060, 48.0726
1061, 35.825
1062, 11.9469
1063, -13.3543
1064, -18.624
1065, 0.335217
1066, 49.294
1067, 110.797
1068, 154.596
1069, 198.453
1070, 251.697
1071, 312.562
1072, 378.65
1073, 441.57
1074, 496.906
1075, 537.403
1076, 567.04
1077, 589.6
1078, 593.951
1079, 575.846
1080, 542.753
1081, 498.304
1082, 449.594
1083, 398.949
1084, 349.238
1085, 288.84
1086, 210.453
1087, 144.569
1088, 100.481
1089, 67.0253
1090, 40.7812
1091, 21.5927
1092, 2.88593
1093, -22.3397
1094, -31.8457
1095, -15.0812
1096, 5.47686
1097, 22.9985
1098, 26.4396
1099, 17.9308
1100, 3.64789
1101, -0.451132
1102, 16.1185
1103, 20.441
1104, 4.29962
1105, -8.0633
1106, -11.3823
1107, -0.544836
1108, 15.8056
1109, 25.9896
1110, 27.4959
1111, 21.1536
1112, 24.2603
1113, 37.3184
1114, 48.9085
1115, 46.2362
1116, 11.8125
1117, -13.8944
1118, -8.73357
1119, 3.43835
1120, 15.4853
1121, 20.8102
1122, 17.6294
1123, 4.01406
1124, -2.0371
1125, 10.9276
1126, 25.0191
1127, 34.688
1128, 49.1279
1129, 65.4237
1130, 74.9285
1131, 82.1659
1132, 90.5554
1133, 87.9786
1134, 74.026
1135, 70.1352
1136, 77.6976
1137, 92.7302
1138, 110.305
1139, 125.426
1140, 126.026
1141, 110.81
1142, 97.8041
1143, 89.0366
1144, 82.8878
1145, 71.8405
1146, 49.6139
1147, 24.7429
1148, 4.06987
1149, 7.39529
1150, 21.5774
1151, 10.8672
1152, 1.04152
1153, 11.6162
1154, 22.1595
1155, 27.5757
1156, 36.8118
1157, 39.587
1158, 14.0255
1159, -7.89041
1160, -4.69034
1161, 2.82924
1162, 6.94765
1163, -1.39071
1164, -13.3999
1165, -14.2584
1166, -2.80861
1167, 20.0343
1168, 29.6416
1169, 23.2159
1170, 11.3346
1171, 1.93371
1172, 4.27744
1173, 16.9103
1174, 34.7245
1175, 32.124
1176, 17.8045
1177, 24.8854
1178, 40.059
1179, 49.5632
1180, 53.4482
1181, 51.6504
1182, 43.7947
1183, 38.642
1184, 51.6494
1185, 66.5663
1186, 71.2766
1187, 51.4007
1188, 17.8996
1189, 16.1533
1190, 26.1016
1191, 20.7178
1192, 12.7651
1193, 6.22233
1194, -6.41784
1195, -16.2765
1196, -1.35632
1197, 13.8057
1198, 11.2259
1199, 1.44033
1200, -3.92045
1201, 23.4043
1202, 57.9712
1203, 65.9808
1204, 61.4213
1205, 51.8454
1206, 45.5311
1207, 49.5306
1208, 74.7696
1209, 83.9413
1210, 55.9425
1211, 26.175
1212, 7.80255
1213, 15.1719
1214, 29.7824
1215, 32.3452
1216, 22.1159
1217, 5.88322
1218, 14.8864
1219, 35.7118
1220, 42.8586
1221, 29.5999
1222, -2.37967
1223, -21.1901
1224, -19.3708
1225, 10.9717
1226, 39.171
1227, 42.0644
1228, 24.4269
1229, -1.28113
1230, -2.05735
1231, 10.2813
1232, 23.0582
1233, 36.0977
1234, 46.6596
1235, 54.964
1236, 67.8485
1237, 93.4503
1238, 109.012
1239, 108.619
1240, 111.784
1241, 120.53
1242, 133.596
1243, 144.585
1244, 151.035
1245, 158.95
1246, 169.19
1247, 181.305
1248, 190.899
1249, 193.184
1250, 172.696
1251, 141.111
1252, 134.488
1253, 144.937
1254, 164.071
1255, 180.196
1256, 186.713
1257, 173.524
1258, 164.671
1259, 178.304
1260, 181.101
1261, 169.62
1262, 161.377
1263, 155.951
1264, 152
1265, 151.847
1266, 149.857
1267, 125.641
1268, 106.788
1269, 119.961
1270, 129.638
1271, 124.317
1272, 102.692
1273, 74.8384
1274, 52.2983
1275, 54.5281
1276, 72.7246
1277, 80.1174
1278, 77.9004
1279, 70.1564
1280, 66.0221
1281, 66.404
1282, 65.1549
1283, 58.6602
1284, 44.2889
1285, 26.9637
1286, 16.5343
1287, 29.1253
1288, 45.5388
1289, 50.2121
1290, 53.3981
1291, 57.0612
1292, 59.1157
1293, 62.1884
1294, 66.8105
1295, 58.6289
1296, 43.4827
1297, 43.3514
1298, 54.5223
1299, 71.6444
1300, 78.739
1301, 73.4018
1302, 57.6278
1303, 52.8893
1304, 66.2634
1305, 68.6459
1306, 64.4828
1307, 68.4206
1308, 63.7534
1309, 47.2749
1310, 39.7781
1311, 27.9343
1312, -6.34596
1313, -15.9145
1314, 4.49942
1315, 18.1388
1316, 24.352
1317, 25.7554
1318, 17.0781
1319, 5.46784
1320, 13.9795
1321, 18.0834
1322, 4.6501
1323, 8.66287
1324, 26.5548
1325, 39.217
1326, 51.1079
1327, 58.5986
1328, 31.6214
1329, -4.29339
1330, -11.0834
1331, -13.3071
1332, -15.6531
1333, -4.63971
1334, 6.66426
1335, 6.91351
1336, 11.3652
1337, 18.6155
1338, 17.4844
1339, 12.2154
1340, 9.11346
1341, 27.7909
1342, 49.7377
1343, 45.1109
1344, 30.0383
1345, 12.2169
1346, -2.73203
1347, 2.71497
1348, 37.4784
1349, 46.89
1350, 31.0872
1351, 15.7585
1352, 13.8848
1353, 28.4988
1354, 44.8813
1355, 43.6587
1356, 7.92907
1357, -11.6284
1358, -6.45421
1359, 9.2644
1360, 21.4327
1361, 20.9851
1362, 8.03427
1363, 2.40413
1364, 31.2065
1365, 50.1364
1366, 44.4261
1367, 18.2774
1368, -2.98945
1369, -1.55728
1370, 16.0487
1371, 35.0551
1372, 32.963
1373, 17.0383
1374, -2.86668
1375, -3.98456
1376, 3.52919
1377, 10.272
1378, 12.8388
1379, 14.0278
1380, 19.3943
1381, 22.4046
1382, 21.6254
1383, 21.2524
1384, 28.7123
1385, 47.9774
1386, 67.6793
1387, 80.0997
1388, 76.1631
1389, 53.5869
1390, 22.4964
1391, 16.0206
1392, 15.215
1393, 8.20162
1394, 13.5492
1395, 26.7308
1396, 38.4305
1397, 46.0615
1398, 44.3291
1399, 22.3176
1400, 4.24322
1401, 4.11711
1402, 19.6984
1403, 33.2487
1404, 27.9469
1405, 15.4443
1406, 0.803882
1407, -11.1422
1408, -11.4175
1409, -1.63171
1410, -0.2519
1411, -0.204862
1412, 4.90757
1413, 15.9517
1414, 29.2381
1415, 39.0461
1416, 37.675
1417, 25.2134
1418, 7.23197
1419, -3.40996
1420, -3.34033
1421, -1.33871
1422, 5.51495
1423, 18.8367
1424, 30.1125
1425, 26.5402
1426, -3.67034
1427, -17.5712
1428, -11.1173
1429, 0.278541
1430, 6.7597
1431, 7.40793
1432, 13.4465
1433, 31.3781
1434, 62.6078
1435, 102.577
1436, 129.77
1437, 124.291
1438, 126.979
1439, 131.934
1440, 112.281
1441, 99.4284
1442, 98.485
1443, 91.6534
1444, 93.4006
1445, 104.479
1446, 94.0919
1447, 83.7045
1448, 90.2768
1449, 94.8013
1450, 92.0053
1451, 79.1906
1452, 55.193
1453, 32.6459
1454, 36.1868
1455, 35.7208
1456, 26.3435
1457, 22.5727
1458, 25.5975
1459, 37.7808
1460, 61.8025
1461, 78.298
1462, 78.8621
1463, 87.775
1464, 104.137
1465, 122.727
1466, 134.314
1467, 136.906
1468, 132.415
1469, 142.988
1470, 163.565
1471, 174.321
1472, 156.834
1473, 119.961
1474, 97.5145
1475, 92.8487
1476, 97.1615
1477, 82.6048
1478, 58.2906
1479, 36.0206
1480, 40.7564
1481, 53.4183
1482, 57.1223
1483, 29.4502
1484, 2.23439
1485, 2.62346
1486, 12.5316
1487, 19.8419
1488, 14.1677
1489, -9.51181
1490, -32.1557
1491, -29.0594
1492, -9.03394
1493, 10.7365
1494, 6.12166
1495, 0.691008
1496, 1.85137
1497, 9.73
1498, 12.6034
1499, 5.76252
1500, -11.1391
1501, -11.6931
1502, 6.27165
1503, 22.8657
1504, 27.2922
1505, 21.442
1506, 22.3948
1507, 32.7704
1508, 43.7551
1509, 26.6268
1510, 4.33165
1511, -5.77974
1512, 8.60154
1513, 21.0052
1514, 21.3834
1515, 31.8885
1516, 33.4337
1517, 19.7137
1518, 16.4604
1519, 6.87531
1520, -10.1663
1521, 10.2716
1522, 30.1152
1523, 23.0143
1524, 4.2723
1525, -8.26711
1526, -6.24107
1527, 1.39779
1528, 8.55125
1529, 10.1354
1530, 2.93189
1531, 10.8442
1532, 40.4092
1533, 48.8081
1534, 36.8104
1535, 14.5594
1536, 7.81452
1537, 14.6789
1538, 26.0671
1539, 23.8788
1540, 18.9094
1541, 21.6253
1542, 40.1356
1543, 42.4088
1544, 15.7927
1545, -13.3267
1546, -15.6464
1547, 12.4913
1548, 33.0362
1549, 42.4863
1550, 42.0961
1551, 36.753
1552, 41.1444
1553, 51.2581
1554, 39.1711
1555, 23.9462
1556, 13.0008
1557, 3.50155
1558, -0.821132
1559, -4.37179
1560, -17.0511
1561, -20.5307
1562, -13.3016
1563, -3.14727
1564, 7.50736
1565, 15.6756
1566, 19.332
1567, 35.7708
1568, 66.0206
1569, 98.1696
1570, 114.633
1571, 125.491
1572, 144.616
1573, 172.506
1574, 204.433
1575, 239.013
1576, 287.113
1577, 329.389
1578, 359.372
1579, 399.855
1580, 403.516
1581, 362.688
1582, 324.597
1583, 263.943
1584, 197.687
1585, 182.053
1586, 163.251
1587, 132.743
1588, 104.256
1589, 69.8888
1590, 35.4384
1591, 13.737
1592, 1.51745
1593, -4.72444
1594, -7.16465
1595, -4.83802
1596, -1.37159
1597, 1.8637
1598, 7.76642
1599, 13.7427
1600, 16.5239
1601, 14.99
1602, 24.562
1603, 33.7931
1604, 19.435
1605, 19.9605
1606, 27.6533
1607, 24.9441
1608, 21.3238
1609, 3.49383
1610, -23.3131
1611, -2.48019
1612, 26.2581
1613, 37.9154
1614, 31.5012
1615, 18.2335
1616, 14.9442
1617, 38.3212
1618, 43.2995
1619, 40.625
1620, 49.2681
1621, 47.0412
1622, 41.5619
1623, 34.7408
1624, 10.4053
1625, 12.0609
1626, 36.9256
1627, 39.7052
1628, 38.8678
1629, 37.9397
1630, 36.4049
1631, 47.0109
1632, 47.5404
1633, 25.8707
1634, 5.86543
1635, -5.28444
1636, -1.44788
1637, 23.5293
1638, 29.2636
1639, 22.8842
1640, 24.3267
1641, 9.05066
1642, 3.36667
1643, 16.6466
1644, 7.4952
1645, 11.5232
1646, 26.6053
1647, 19.0116
1648, 5.49482
1649, -5.6737
1650, -11.5734