File: Raman_Spectroscopy_GAN/input/clinical_sample/s6/s6_2_785M-T_Rlab.csv
a,b
320, 0.660317
321, -3.50078
322, -5.04572
323, 0.0693421
324, 13.7664
325, 39.8864
326, 71.751
327, 88.7495
328, 90.0278
329, 87.1024
330, 82.8785
331, 77.5942
332, 71.38
333, 67.7575
334, 71.1834
335, 77.0941
336, 72.8726
337, 60.6634
338, 58.2678
339, 67.9995
340, 75.6057
341, 75.653
342, 69.2662
343, 57.3708
344, 41.8498
345, 26.1892
346, 13.0332
347, 13.7295
348, 27.3351
349, 33.494
350, 27.77
351, 18.9518
352, 11.568
353, 6.80135
354, 6.6715
355, 12.039
356, 24.329
357, 40.7036
358, 46.3597
359, 39.7597
360, 27.6229
361, 12.0924
362, -0.587734
363, -6.5536
364, -6.0265
365, 1.56434
366, 13.6645
367, 20.8459
368, 23.0907
369, 23.5177
370, 22.9288
371, 25.9069
372, 33.9321
373, 35.8118
374, 23.8316
375, 6.82012
376, -2.23994
377, -4.89233
378, -5.60246
379, -3.98445
380, 4.52581
381, 20.2982
382, 31.2313
383, 33.1861
384, 29.6706
385, 23.0597
386, 13.946
387, 3.16651
388, -6.9559
389, -10.73
390, -8.39664
391, -0.987627
392, 10.8146
393, 10.7912
394, -5.83262
395, -20.5146
396, -23.3333
397, -18.5118
398, -10.3206
399, -0.81246
400, 4.24952
401, 5.36022
402, 3.82008
403, 0.989755
404, 9.82584
405, 34.3682
406, 71.5547
407, 115.327
408, 154.633
409, 179.411
410, 195.959
411, 215.513
412, 237.679
413, 260.423
414, 284.165
415, 312.636
416, 345.488
417, 367.138
418, 372.463
419, 374.156
420, 380.108
421, 390.009
422, 403.485
423, 416.658
424, 420.916
425, 414.258
426, 389.884
427, 349.285
428, 309.987
429, 275.802
430, 247.485
431, 225.301
432, 204.932
433, 183.346
434, 162.036
435, 142.983
436, 126.26
437, 112.016
438, 98.2353
439, 76.3896
440, 47.0176
441, 26.9417
442, 16.6498
443, 11.8734
444, 10.9103
445, 17.5597
446, 35.1282
447, 51.8739
448, 55.348
449, 54.465
450, 68.779
451, 92.4013
452, 100.595
453, 93.2573
454, 85.9046
455, 81.3242
456, 77.3632
457, 73.3063
458, 69.044
459, 64.5146
460, 57.7032
461, 46.6271
462, 29.7672
463, 4.50265
464, -19.8101
465, -19.7726
466, -0.795749
467, 4.3931
468, -5.943
469, -6.38588
470, 8.12492
471, 13.7397
472, 0.812307
473, -12.1762
474, -14.3251
475, -13.2165
476, -17.1889
477, -18.8432
478, -3.36121
479, 24.7671
480, 45.8529
481, 58.6325
482, 64.012
483, 63.0848
484, 64.8623
485, 71.1131
486, 72.7425
487, 66.2204
488, 57.9029
489, 51.8312
490, 39.9086
491, 13.5548
492, -12.8195
493, -15.4984
494, -2.34518
495, 5.94845
496, 9.81288
497, 12.3958
498, 13.1657
499, 5.05511
500, -11.2404
501, -15.1637
502, -0.432904
503, 19.9849
504, 40.9599
505, 61.8068
506, 76.2649
507, 92.2299
508, 119.678
509, 158.155
510, 206.699
511, 261.686
512, 312.313
513, 358.331
514, 401.969
515, 442.883
516, 476.384
517, 500.996
518, 509.79
519, 500.68
520, 477.124
521, 440.837
522, 401.936
523, 367.687
524, 336.496
525, 306.578
526, 277.105
527, 246.669
528, 215.991
529, 186.949
530, 160.038
531, 136.755
532, 115.933
533, 90.188
534, 59.7563
535, 43.2171
536, 41.1946
537, 41.5156
538, 35.9343
539, 27.0184
540, 16.0824
541, 6.97044
542, 0.420386
543, 3.606
544, 25.5281
545, 52.3087
546, 61.9712
547, 59.4431
548, 56.8621
549, 55.1674
550, 55.8336
551, 59.1463
552, 65.9081
553, 74.1002
554, 68.8549
555, 49.0327
556, 33.8034
557, 28.279
558, 28.6023
559, 33.0768
560, 32.7067
561, 22.696
562, 11.3244
563, 4.81933
564, 0.806109
565, -4.19804
566, -4.59329
567, 8.85366
568, 23.1716
569, 10.144
570, -17.7322
571, -24.324
572, -14.1821
573, -10.1807
574, -11.5373
575, -3.67003
576, 13.0885
577, 13.9863
578, -3.19489
579, -4.48155
580, 18.0932
581, 34.8918
582, 34.807
583, 27.5958
584, 18.1653
585, 7.90142
586, -2.26684
587, -5.78477
588, 3.08067
589, 15.6294
590, 20.5219
591, 21.6478
592, 25.3567
593, 30.1467
594, 32.6579
595, 31.4855
596, 23.0845
597, 9.7498
598, 0.317713
599, -3.9329
600, -1.25226
601, 7.02708
602, 9.63363
603, 5.57324
604, 2.51504
605, 1.66828
606, -2.63687
607, -11.4517
608, -11.4827
609, 1.63952
610, 8.24902
611, -0.793323
612, -8.68941
613, -6.65746
614, -0.559174
615, 5.86877
616, 13.3415
617, 22.4588
618, 29.4072
619, 29.7516
620, 26.0599
621, 22.086
622, 20.4616
623, 25.8714
624, 31.6956
625, 23.1176
626, 6.10944
627, -1.24151
628, 0.835836
629, 11.0647
630, 27.7713
631, 39.6048
632, 46.9668
633, 56.917
634, 68.8227
635, 73.3675
636, 69.8368
637, 64.3087
638, 57.7617
639, 47.8718
640, 35.4327
641, 36.6224
642, 54.8743
643, 70.3334
644, 76.329
645, 76.0766
646, 70.9776
647, 64.2242
648, 57.3368
649, 50.9887
650, 45.4871
651, 35.4329
652, 17.4229
653, 2.51996
654, -0.769787
655, 3.57166
656, 12.7994
657, 23.9263
658, 34.2731
659, 35.8311
660, 19.1116
661, -1.70211
662, -7.43168
663, -2.68775
664, 6.56716
665, 20.2746
666, 36.1752
667, 47.0538
668, 38.6981
669, 24.3778
670, 34.3197
671, 57.1436
672, 62.0709
673, 51.6866
674, 36.9747
675, 18.6743
676, -2.87645
677, -21.4444
678, -17.2014
679, 3.84618
680, 13.7573
681, 11.8373
682, 8.05887
683, 5.6123
684, 14.4955
685, 32.2901
686, 44.6987
687, 50.1368
688, 50.1372
689, 44.4629
690, 30.5042
691, 10.8067
692, 3.59477
693, 10.1888
694, 15.858
695, 18.0487
696, 17.4427
697, 14.2003
698, 8.52322
699, 1.24203
700, -1.01556
701, 2.34769
702, 6.1937
703, 10.0823
704, 18.6769
705, 31.7415
706, 46.5476
707, 61.6712
708, 69.5367
709, 68.6641
710, 64.9227
711, 60.0866
712, 55.9791
713, 53.3276
714, 54.634
715, 60.591
716, 70.777
717, 84.6586
718, 97.0917
719, 105.969
720, 104.138
721, 90.2833
722, 75.7209
723, 64.5128
724, 64.2138
725, 76.0377
726, 85.2133
727, 87.014
728, 79.4534
729, 62.4257
730, 42.477
731, 22.3232
732, 10.9767
733, 11.2522
734, 10.6563
735, 4.64527
736, -2.57049
737, -9.71605
738, -7.06102
739, 7.45107
740, 21.3077
741, 30.4018
742, 30.0696
743, 20.0676
744, 10.5345
745, 3.98541
746, -0.613304
747, -3.73993
748, -7.14319
749, -10.5313
750, -6.06023
751, 8.05876
752, 28.4423
753, 51.1531
754, 53.6068
755, 34.5918
756, 16.7091
757, 4.75508
758, 2.66201
759, 9.22174
760, 14.8321
761, 17.1694
762, 11.8634
763, 1.12714
764, -0.806225
765, 6.91305
766, 21.1398
767, 37.7842
768, 44.753
769, 43.6047
770, 45.2259
771, 50.7363
772, 60.3732
773, 69.675
774, 64.6272
775, 49.7195
776, 40.5302
777, 36.2278
778, 32.2685
779, 31.375
780, 40.3248
781, 50.9235
782, 45.7557
783, 35.9169
784, 42.7199
785, 52.1146
786, 40.516
787, 19.6513
788, 6.77626
789, 0.603524
790, -2.10951
791, -0.929484
792, 5.03231
793, 12.3815
794, 16.9327
795, 22.7293
796, 32.9567
797, 44.9643
798, 56.8335
799, 61.944
800, 56.4443
801, 41.4359
802, 18.0303
803, 0.0385286
804, -6.67099
805, -4.61511
806, 5.05372
807, 14.1855
808, 19.6492
809, 23.9064
810, 28.0922
811, 36.1728
812, 48.9886
813, 66.2959
814, 83.3031
815, 74.5992
816, 43.3054
817, 19.5974
818, 4.95266
819, -7.58274
820, -15.3499
821, -5.47164
822, 14.4506
823, 21.633
824, 21.3791
825, 26.5366
826, 30.9617
827, 23.9466
828, 14.5366
829, 14.9436
830, 18.5758
831, 18.4368
832, 16.4689
833, 14.2553
834, 9.75806
835, 2.92531
836, 5.6535
837, 23.9919
838, 38.827
839, 43.2587
840, 49.9093
841, 61.9752
842, 69.1727
843, 69.9632
844, 72.9819
845, 77.5067
846, 69.6996
847, 52.1489
848, 44.9975
849, 45.8918
850, 39.5718
851, 28.6083
852, 22.6387
853, 18.557
854, 9.25548
855, 3.65758
856, 13.6569
857, 28.2577
858, 35.1418
859, 36.7415
860, 35.1321
861, 31.1424
862, 25.3642
863, 19.9549
864, 15.8493
865, 11.3796
866, 5.86096
867, -0.992899
868, -8.12091
869, -1.78712
870, 17.0892
871, 25.7176
872, 23.8775
873, 23.04
874, 24.4073
875, 28.2656
876, 31.352
877, 26.9273
878, 18.2276
879, 10.4259
880, 7.02149
881, 12.403
882, 22.4182
883, 34.2437
884, 37.7325
885, 27.8653
886, 14.3982
887, 2.05993
888, 1.27444
889, 13.1209
890, 24.8837
891, 33.4118
892, 35.5524
893, 29.6298
894, 11.3435
895, -9.50702
896, -9.11208
897, 3.71177
898, 13.0475
899, 18.718
900, 21.3114
901, 19.9071
902, 13.9852
903, 14.0341
904, 24.7383
905, 24.8388
906, 8.25651
907, -3.14232
908, -4.21343
909, 2.66855
910, 16.3076
911, 30.1683
912, 39.7963
913, 34.4146
914, 22.8928
915, 23.9933
916, 29.0049
917, 25.744
918, 17.3957
919, 6.82135
920, -0.665514
921, -2.83896
922, 6.82299
923, 29.5729
924, 42.364
925, 42.4274
926, 46.8009
927, 55.6891
928, 59.4659
929, 59.6715
930, 62.4014
931, 63.0179
932, 53.4764
933, 45.5415
934, 51.3983
935, 55.9355
936, 49.5101
937, 37.4737
938, 22.4315
939, 8.03669
940, -2.36384
941, -0.307022
942, 12.8748
943, 25.0975
944, 34.9329
945, 41.7873
946, 45.8877
947, 47.6298
948, 44.4904
949, 34.143
950, 21.3338
951, 9.07144
952, 2.40888
953, 3.32166
954, 21.468
955, 52.5515
956, 66.1137
957, 63.5632
958, 61.5998
959, 58.9415
960, 51.0227
961, 42.8662
962, 40.2724
963, 36.6656
964, 27.6724
965, 14.2284
966, -1.5215
967, -2.75398
968, 10.8851
969, 19.8929
970, 25.4908
971, 40.3077
972, 52.5405
973, 38.278
974, 13.951
975, -1.624
976, -7.91754
977, -4.82563
978, 13.7367
979, 46.221
980, 57.5094
981, 43.8116
982, 23.4415
983, 3.9264
984, -0.362998
985, 5.02405
986, 11.516
987, 12.6106
988, 3.47203
989, -6.34669
990, -11.9992
991, 0.954984
992, 32.5007
993, 49.8172
994, 55.6705
995, 75.8682
996, 100.094
997, 105.511
998, 104.261
999, 109.136
1000, 105.969
1001, 88.5719
1002, 82.7079
1003, 93.1113
1004, 96.8517
1005, 87.9585
1006, 59.886
1007, 23.2573
1008, -0.281792
1009, -7.45019
1010, 3.65528
1011, 19.6979
1012, 31.1876
1013, 24.819
1014, 2.54954
1015, 1.54908
1016, 20.4197
1017, 35.2137
1018, 42.668
1019, 40.1679
1020, 39.2137
1021, 50.1904
1022, 65.8716
1023, 81.4179
1024, 83.1519
1025, 68.7611
1026, 44.653
1027, 21.6583
1028, 25.5403
1029, 37.567
1030, 30.1425
1031, 15.7818
1032, 3.58677
1033, -0.977186
1034, 2.69109
1035, 9.17728
1036, 13.7735
1037, 4.97701
1038, -10.344
1039, -18.8928
1040, -12.5383
1041, 16.2924
1042, 38.3599
1043, 40.161
1044, 28.4127
1045, 8.1189
1046, -6.41889
1047, -13.4851
1048, -12.1525
1049, -11.1358
1050, -19.6961
1051, -20.7602
1052, -6.82573
1053, 1.47023
1054, -0.796764
1055, -12.4231
1056, -28.8636
1057, -38.6936
1058, -34.8291
1059, -8.53311
1060, 14.7769
1061, 22.0668
1062, 18.6481
1063, 11.3498
1064, 27.3932
1065, 71.7419
1066, 148.172
1067, 257.168
1068, 375.696
1069, 499.567
1070, 627.142
1071, 764.538
1072, 911.179
1073, 1057.58
1074, 1197.23
1075, 1318.7
1076, 1416.04
1077, 1483.33
1078, 1508.46
1079, 1486.4
1080, 1421.75
1081, 1323.98
1082, 1223.36
1083, 1121.64
1084, 1017.08
1085, 892.401
1086, 736.373
1087, 586.418
1088, 457.615
1089, 358.307
1090, 280.4
1091, 198.067
1092, 110.802
1093, 31.6339
1094, -16.4696
1095, -23.5698
1096, -14.8552
1097, -2.07905
1098, -9.49527
1099, -24.8917
1100, -20.2334
1101, -3.76116
1102, 17.2118
1103, 20.2832
1104, 1.19786
1105, -14.7508
1106, -21.9747
1107, -13.2482
1108, 1.41333
1109, 10.1793
1110, 8.1385
1111, -3.30898
1112, 6.9576
1113, 34.5098
1114, 39.3814
1115, 25.8021
1116, 5.27204
1117, -13.3252
1118, -24.3455
1119, -12.5362
1120, 17.4116
1121, 22.9076
1122, 13.4854
1123, 15.5338
1124, 22.8398
1125, 30.0551
1126, 34.1944
1127, 32.034
1128, 12.6752
1129, -10.4848
1130, -7.48237
1131, 10.7612
1132, 35.0023
1133, 53.4789
1134, 63.8759
1135, 74.6439
1136, 89.4651
1137, 113.775
1138, 129.812
1139, 121.703
1140, 98.8349
1141, 68.8284
1142, 54.0209
1143, 54.5042
1144, 62.7903
1145, 60.4291
1146, 33.0331
1147, 17.9545
1148, 28.0421
1149, 46.5482
1150, 60.7476
1151, 47.9971
1152, 22.9392
1153, -0.0913568
1154, 0.0398217
1155, 23.5318
1156, 36.7373
1157, 30.9329
1158, -2.05567
1159, -20.5099
1160, 1.62563
1161, 27.9586
1162, 44.0558
1163, 38.8415
1164, 17.3291
1165, -10.0523
1166, -18.332
1167, 3.28491
1168, 19.1048
1169, 22.324
1170, 21.824
1171, 19.9384
1172, 18.9666
1173, 26.5875
1174, 41.4093
1175, 48.5268
1176, 51.401
1177, 65.3571
1178, 84.4014
1179, 101.671
1180, 106.523
1181, 98.0414
1182, 89.4049
1183, 87.6776
1184, 102.218
1185, 111.581
1186, 102.463
1187, 79.6678
1188, 52.5122
1189, 46.5083
1190, 50.3382
1191, 48.3647
1192, 38.2739
1193, 19.9395
1194, 0.0383511
1195, -9.41922
1196, 17.3404
1197, 40.6681
1198, 32.367
1199, 38.6311
1200, 62.1716
1201, 71.0358
1202, 75.7044
1203, 91.0665
1204, 92.2074
1205, 77.181
1206, 93.1883
1207, 123.202
1208, 120.507
1209, 94.6564
1210, 55.8444
1211, 31.9769
1212, 29.4661
1213, 47.3675
1214, 57.5157
1215, 32.7819
1216, 6.48551
1217, -6.65354
1218, 1.04833
1219, 17.9054
1220, 22.8002
1221, 10.7184
1222, -15.2819
1223, -21.2811
1224, -10.0552
1225, 1.01679
1226, 2.00055
1227, -12.1525
1228, -20.3007
1229, -18.5515
1230, -9.53124
1231, -1.32983
1232, -1.14811
1233, 2.25513
1234, 13.2792
1235, 34.161
1236, 55.9794
1237, 68.06
1238, 59.9233
1239, 36.4861
1240, 48.5154
1241, 88.7629
1242, 127.049
1243, 156.337
1244, 171.203
1245, 159.684
1246, 144.793
1247, 177.591
1248, 219.067
1249, 244.218
1250, 261.728
1251, 272.218
1252, 272.766
1253, 275.314
1254, 285.643
1255, 272.11
1256, 238.525
1257, 216.865
1258, 218.845
1259, 249.095
1260, 264.739
1261, 259.735
1262, 251.76
1263, 240.616
1264, 225.085
1265, 206.573
1266, 182.274
1267, 141.801
1268, 109.283
1269, 107.62
1270, 107.685
1271, 97.4809
1272, 67.4043
1273, 37.9743
1274, 34.276
1275, 46.8007
1276, 60.4869
1277, 46.2841
1278, 20.36
1279, 4.99784
1280, 17.6421
1281, 50.9726
1282, 64.277
1283, 52.8435
1284, 18.1028
1285, -3.88776
1286, -4.28211
1287, 13.0003
1288, 28.3739
1289, 25.7256
1290, 19.3593
1291, 15.1828
1292, 18.8685
1293, 22.7648
1294, 19.6261
1295, 0.675208
1296, -21.9194
1297, -16.6892
1298, 7.29065
1299, 39.5336
1300, 45.9511
1301, 30.6146
1302, 15.7663
1303, 11.0505
1304, 19.5653
1305, 29.8088
1306, 31.3796
1307, 11.1144
1308, -0.0464195
1309, 6.86218
1310, 7.59194
1311, 1.6455
1312, -6.54373
1313, -0.565943
1314, 18.7896
1315, 24.8801
1316, 19.6242
1317, 7.36823
1318, -9.71313
1319, -19.918
1320, 7.3018
1321, 33.7819
1322, 33.8619
1323, 37.1491
1324, 44.3083
1325, 45.4422
1326, 47.4199
1327, 48.7951
1328, 24.7447
1329, -6.62584
1330, -16.6802
1331, -0.36696
1332, 33.119
1333, 40.8085
1334, 28.5364
1335, 7.03013
1336, -0.58531
1337, 7.3681
1338, 22.1429
1339, 25.2282
1340, 10.8886
1341, 4.26643
1342, 7.53458
1343, 16.4678
1344, 14.6106
1345, 2.00596
1346, -0.945092
1347, 10.0946
1348, 34.5338
1349, 44.8708
1350, 34.2546
1351, 2.34096
1352, -13.5507
1353, -0.567293
1354, 22.0452
1355, 35.2683
1356, 21.4476
1357, 6.50685
1358, 0.178984
1359, 7.42594
1360, 14.3274
1361, 12.1468
1362, 3.72853
1363, 3.42405
1364, 29.3584
1365, 48.0649
1366, 45.9011
1367, 18.1275
1368, -0.492761
1369, 11.6154
1370, 18.856
1371, 17.8664
1372, 14.2496
1373, 4.72796
1374, -4.06807
1375, 14.42
1376, 28.5639
1377, 14.4351
1378, 1.39063
1379, -4.89096
1380, -5.29159
1381, 7.59939
1382, 29.2779
1383, 32.7672
1384, 34.0983
1385, 46.2044
1386, 58.6678
1387, 60.7095
1388, 39.5751
1389, 21.1764
1390, 15.1466
1391, 22.7074
1392, 38.4226
1393, 56.4235
1394, 58.2049
1395, 59.0475
1396, 81.9328
1397, 96.122
1398, 89.7858
1399, 58.1747
1400, 32.3956
1401, 29.8811
1402, 51.8531
1403, 81.5262
1404, 102.086
1405, 91.4822
1406, 66.49
1407, 68.2669
1408, 64.8537
1409, 50.7552
1410, 54.2048
1411, 55.9072
1412, 45.0103
1413, 51.2465
1414, 51.7564
1415, 14.9579
1416, 3.58234
1417, 19.8134
1418, 31.0636
1419, 41.7721
1420, 48.2389
1421, 26.8373
1422, 8.63128
1423, 16.8874
1424, 24.2082
1425, 26.8728
1426, 26.2267
1427, 23.2776
1428, 20.2721
1429, 21.0052
1430, 11.528
1431, -8.85279
1432, -21.0602
1433, -14.1283
1434, 13.2626
1435, 24.1893
1436, 21.4913
1437, 15.6264
1438, 9.80099
1439, 8.71326
1440, 18.0299
1441, 12.5994
1442, -4.54243
1443, -0.685811
1444, 15.865
1445, 35.1565
1446, 40.2363
1447, 30.0086
1448, 10.7368
1449, 16.8949
1450, 28.9163
1451, 17.7834
1452, 4.53493
1453, -2.25601
1454, 1.96432
1455, 19.8757
1456, 39.241
1457, 28.7712
1458, 10.4615
1459, 0.106829
1460, 12.0462
1461, 15.346
1462, -2.33929
1463, 4.32915
1464, 20.9896
1465, 29.1386
1466, 40.777
1467, 39.9336
1468, 9.18839
1469, 12.0791
1470, 40.8563
1471, 55.9084
1472, 56.6545
1473, 47.384
1474, 38.6039
1475, 52.5743
1476, 81.2583
1477, 74.6324
1478, 54.0001
1479, 37.5491
1480, 42.7903
1481, 55.2669
1482, 58.7389
1483, 29.3808
1484, -0.45615
1485, -2.97575
1486, 5.28462
1487, 11.2337
1488, 3.66917
1489, -5.27241
1490, -4.15712
1491, 17.4804
1492, 32.932
1493, 30.3038
1494, 4.67083
1495, -2.75545
1496, 8.38737
1497, 17.9946
1498, 20.6885
1499, 18.2437
1500, 18.4965
1501, 30.0157
1502, 45.975
1503, 41.8304
1504, 18.9228
1505, -5.63358
1506, 10.2265
1507, 18.7332
1508, 3.66429
1509, -8.63401
1510, -13.3554
1511, -3.23911
1512, 40.0258
1513, 64.9934
1514, 53.5836
1515, 51.5507
1516, 56.6101
1517, 60.4778
1518, 46.7438
1519, 22.1836
1520, -0.642805
1521, 6.31447
1522, 22.1888
1523, 29.2711
1524, 26.2709
1525, 22.6764
1526, 26.3169
1527, 41.5796
1528, 48.3603
1529, 38.2249
1530, 37.479
1531, 36.7996
1532, 27.7755
1533, 11.8385
1534, 6.14724
1535, 20.7938
1536, 45.1851
1537, 57.3405
1538, 42.4548
1539, -1.60192
1540, -27.5958
1541, -15.0842
1542, 8.06513
1543, 24.8085
1544, 26.0114
1545, 13.843
1546, 13.2515
1547, 30.7944
1548, 41.9966
1549, 39.3394
1550, 29.1951
1551, 38.4886
1552, 48.7974
1553, 46.3952
1554, 20.8411
1555, -11.3273
1556, -31.5184
1557, -14.656
1558, -3.14342
1559, -6.43899
1560, -11.9891
1561, -21.5145
1562, -25.3246
1563, -6.24983
1564, 10.8655
1565, 35.8721
1566, 89.2277
1567, 116.418
1568, 128.542
1569, 167.635
1570, 221.44
1571, 296.565
1572, 393.421
1573, 477.636
1574, 558.41
1575, 652.114
1576, 778.364
1577, 902.656
1578, 991.527
1579, 1013.28
1580, 1015.11
1581, 1016.92
1582, 1001.52
1583, 941.495
1584, 832.498
1585, 692.919
1586, 587.17
1587, 505.612
1588, 400.248
1589, 275.61
1590, 162.155
1591, 91.8982
1592, 50.9831
1593, 22.1906
1594, -2.56166
1595, -13.0386
1596, -4.87853
1597, 10.1965
1598, -13.3322
1599, -33.4048
1600, -26.4497
1601, 13.2099
1602, 43.8575
1603, 45.5916
1604, 15.7773
1605, 5.04495
1606, 7.34674
1607, 1.81871
1608, -7.13179
1609, -13.3932
1610, -8.41368
1611, 23.5294
1612, 43.7463
1613, 39.085
1614, 30.2435
1615, 22.4977
1616, 15.2209
1617, 4.93754
1618, -7.26679
1619, -13.7508
1620, -6.03654
1621, 17.5991
1622, 29.4683
1623, 13.8078
1624, -15.2049
1625, -6.07291
1626, 32.5429
1627, 35.3698
1628, 23.1605
1629, 8.03228
1630, 0.164937
1631, 15.5513
1632, 17.635
1633, -6.82363
1634, 1.20668
1635, 21.8023
1636, 37.6124
1637, 37.616
1638, 20.8176
1639, 13.6687
1640, 40.3893
1641, 41.4914
1642, 23.722
1643, 0.80316
1644, -19.8367
1645, -9.63565
1646, 21.6656
1647, 30.314
1648, 18.9902
1649, 10.0653
1650, 20.0322