File: Raman_Spectroscopy_GAN/input/clinical_sample/s6/s6_4_785M-T_Rlab.csv
a,b
320, 38.818
321, 86.7825
322, 122.694
323, 132.031
324, 128.154
325, 134.517
326, 150.242
327, 170.263
328, 193.833
329, 218.572
330, 243.609
331, 256.111
332, 249.036
333, 237.419
334, 240.288
335, 253.162
336, 263.51
337, 269.651
338, 265.649
339, 250.832
340, 231.837
341, 211.204
342, 192.077
343, 177.044
344, 164.131
345, 149.684
346, 133.812
347, 117.254
348, 100.29
349, 84.8177
350, 71.3364
351, 61.1544
352, 54.9454
353, 46.5274
354, 28.9013
355, 8.04636
356, -0.869084
357, 0.57534
358, 5.91252
359, 14.4911
360, 22.2605
361, 28.1533
362, 31.7229
363, 32.689
364, 30.4998
365, 24.3999
366, 15.6387
367, 7.71755
368, 1.17519
369, -1.92846
370, -1.34671
371, 6.74914
372, 23.6781
373, 36.1876
374, 35.1432
375, 23.5603
376, 5.87337
377, -12.535
378, -17.2982
379, -10.0078
380, -2.66131
381, 3.50911
382, 11.3376
383, 21.6803
384, 31.4235
385, 38.4587
386, 44.3838
387, 51.4568
388, 55.9846
389, 47.7386
390, 28.2179
391, 8.94011
392, -7.90309
393, -17.3706
394, -18.6252
395, -9.87707
396, 10.9281
397, 34.9049
398, 47.6527
399, 51.9683
400, 54.4637
401, 55.289
402, 53.8936
403, 51.6589
404, 67.7381
405, 100.191
406, 140.09
407, 183.207
408, 231.799
409, 287.923
410, 342.723
411, 380.4
412, 405.193
413, 432.146
414, 461.566
415, 487.782
416, 509.848
417, 528.811
418, 544.887
419, 547.521
420, 530.151
421, 512.649
422, 518.902
423, 536.545
424, 538.002
425, 525.53
426, 512.312
427, 498.361
428, 472.761
429, 434.126
430, 401.811
431, 383.312
432, 367.098
433, 345.066
434, 319.806
435, 294.761
436, 272.059
437, 256.72
438, 247.589
439, 238.895
440, 230.475
441, 226.23
442, 226.69
443, 225.414
444, 219.965
445, 217.283
446, 222.076
447, 227.309
448, 224.208
449, 217.834
450, 219.294
451, 225.352
452, 222.354
453, 210.06
454, 195.778
455, 180.576
456, 159.862
457, 132.405
458, 113.082
459, 110.238
460, 111.817
461, 105.955
462, 94.8698
463, 82.3862
464, 66.2834
465, 39.9523
466, 7.53563
467, -7.77935
468, -6.49517
469, -6.37545
470, -11.0069
471, -5.8842
472, 15.3496
473, 35.1897
474, 41.6274
475, 39.8501
476, 35.8099
477, 28.3311
478, 15.1443
479, 0.686447
480, -0.972188
481, 9.01293
482, 20.4093
483, 30.4609
484, 27.189
485, 8.75039
486, -2.29975
487, 2.64883
488, 15.4578
489, 30.3711
490, 46.0283
491, 60.9878
492, 66.9543
493, 49.5343
494, 18.2129
495, -0.321921
496, -5.77909
497, -3.95677
498, 5.23938
499, 26.5457
500, 61.9687
501, 96.1587
502, 125.443
503, 162.816
504, 214.672
505, 267.811
506, 311.966
507, 356.361
508, 412.649
509, 476.886
510, 541.232
511, 605.607
512, 670.386
513, 733.712
514, 786.837
515, 829.99
516, 873.173
517, 917.071
518, 942.93
519, 945.026
520, 930.352
521, 902.256
522, 863.667
523, 816.689
524, 764.662
525, 711.334
526, 653.476
527, 585.572
528, 514.285
529, 456.662
530, 411.012
531, 367.942
532, 327.663
533, 296.377
534, 273.869
535, 249.396
536, 220.734
537, 193.451
538, 169.375
539, 143.883
540, 114.658
541, 86.9205
542, 64.5243
543, 51.6385
544, 44.443
545, 46.6603
546, 61.0555
547, 80.3988
548, 87.692
549, 84.5648
550, 78.6378
551, 71.5836
552, 68.48
553, 68.9678
554, 65.9607
555, 58.5297
556, 51.5413
557, 46.1153
558, 37.7759
559, 25.0137
560, 17.7987
561, 21.415
562, 20.3917
563, 3.0928
564, -12.9496
565, -10.793
566, 0.843209
567, 9.54209
568, 15.8703
569, 21.4818
570, 23.2197
571, 11.9891
572, -7.60983
573, -16.4352
574, -15.2254
575, -13.5397
576, -12.2751
577, -8.5625
578, -1.99064
579, 1.96684
580, 2.11555
581, 4.87237
582, 12.4625
583, 17.6021
584, 16.7098
585, 17.055
586, 23.4821
587, 34.3463
588, 48.1718
589, 57.8398
590, 54.6521
591, 44.7017
592, 37.8988
593, 35.0702
594, 37.6741
595, 43.3384
596, 45.4455
597, 42.5378
598, 30.7924
599, 12.5289
600, -0.0199896
601, -4.0878
602, 7.47493
603, 33.0171
604, 45.057
605, 38.4951
606, 24.8077
607, 7.64199
608, -6.52402
609, -15.8067
610, -15.4546
611, -3.09475
612, 8.97974
613, 13.3981
614, 16.4217
615, 22.5399
616, 31.3268
617, 42.3952
618, 54.1763
619, 64.8459
620, 72.7406
621, 75.4382
622, 75.543
623, 77.7855
624, 80.5916
625, 80.2761
626, 78.7081
627, 81.2652
628, 87.644
629, 95.8872
630, 104.671
631, 109.346
632, 109.328
633, 104.113
634, 94.7246
635, 87.642
636, 84.8391
637, 92.9791
638, 111.644
639, 124.462
640, 128.157
641, 131.246
642, 135.66
643, 132.847
644, 120.467
645, 111.296
646, 110.043
647, 102.965
648, 83.8527
649, 65.8134
650, 55.8992
651, 40.3742
652, 10.577
653, -6.07027
654, 10.2636
655, 40.0506
656, 65.7514
657, 81.322
658, 80.6042
659, 63.1816
660, 28.5617
661, -3.96781
662, -8.52282
663, 4.09686
664, 18.4589
665, 31.6642
666, 38.9462
667, 39.9123
668, 33.9621
669, 27.0448
670, 32.3677
671, 42.9782
672, 40.5434
673, 29.0216
674, 21.5779
675, 16.2986
676, 5.10847
677, -6.88669
678, -1.47948
679, 17.1152
680, 25.9748
681, 24.606
682, 19.6311
683, 12.6074
684, 7.32766
685, 4.38201
686, 4.89165
687, 9.49924
688, 20.3448
689, 35.5574
690, 42.3335
691, 40.8307
692, 44.4754
693, 52.3183
694, 42.7421
695, 16.1944
696, 4.46316
697, 11.9578
698, 21.6162
699, 29.177
700, 40.2089
701, 54.9336
702, 64.4033
703, 66.6576
704, 62.9537
705, 54.7523
706, 53.4709
707, 61.0684
708, 67.4649
709, 71.2808
710, 86.7844
711, 116.082
712, 138.359
713, 148.915
714, 161.985
715, 180.431
716, 188.618
717, 183.058
718, 178.205
719, 177.87
720, 174.983
721, 167.309
722, 153.884
723, 135.351
724, 124.069
725, 122.97
726, 120.318
727, 112.747
728, 103.78
729, 93.8531
730, 74.5704
731, 45.3198
732, 30.9154
733, 36.9212
734, 39.2632
735, 31.8993
736, 28.3959
737, 31.614
738, 28.8092
739, 17.3618
740, 8.529
741, 5.51255
742, -0.176612
743, -9.79561
744, -9.13251
745, 4.21858
746, 16.0409
747, 22.5988
748, 24.1133
749, 20.4963
750, 10.5674
751, -3.61067
752, -4.11175
753, 10.6093
754, 24.0835
755, 32.6773
756, 34.7345
757, 30.6647
758, 25.0099
759, 19.9884
760, 23.8921
761, 34.5414
762, 33.0444
763, 19.0382
764, 4.56971
765, -5.92259
766, -0.31786
767, 19.2396
768, 35.1239
769, 46.5443
770, 57.8017
771, 67.4037
772, 68.7827
773, 63.6326
774, 58.9801
775, 51.7001
776, 31.5071
777, 7.33419
778, 3.60572
779, 15.2238
780, 26.482
781, 36.4404
782, 44.4162
783, 48.8396
784, 46.8697
785, 43.1458
786, 45.3089
787, 49.4017
788, 49.6074
789, 49.159
790, 52.1541
791, 53.951
792, 49.5209
793, 45.6618
794, 48.6375
795, 49.3401
796, 40.6228
797, 31.6825
798, 28.734
799, 28.4023
800, 28.675
801, 28.3191
802, 26.8531
803, 27.7428
804, 32.2521
805, 36.1984
806, 37.7308
807, 32.7315
808, 21.0715
809, 14.8229
810, 17.2326
811, 28.7199
812, 46.5071
813, 51.6819
814, 42.8859
815, 31.3231
816, 19.6381
817, 12.1545
818, 8.89913
819, 8.13744
820, 7.98685
821, 3.30962
822, -1.59088
823, 3.37664
824, 15.1823
825, 25.3958
826, 27.8128
827, 12.6069
828, -2.34465
829, 6.63618
830, 25.7448
831, 38.7263
832, 52.6448
833, 73.1057
834, 78.4508
835, 55.4887
836, 45.1236
837, 67.4801
838, 93.191
839, 110.333
840, 124.134
841, 135.663
842, 138.04
843, 131.267
844, 128.805
845, 132.219
846, 134.94
847, 134.642
848, 125.751
849, 110.713
850, 99.6701
851, 90.4871
852, 75.6699
853, 61.2531
854, 59.9338
855, 65.783
856, 69.2605
857, 74.6797
858, 87.0705
859, 92.7832
860, 80.4601
861, 63.4716
862, 50.3477
863, 43.6359
864, 44.347
865, 48.9027
866, 54.5369
867, 45.4136
868, 21.2771
869, 11.6145
870, 20.1986
871, 28.8826
872, 34.9756
873, 37.4478
874, 33.6566
875, 16.5346
876, -3.44511
877, -4.25883
878, 3.33774
879, 2.70575
880, 0.37372
881, 3.00736
882, 9.83077
883, 20.1577
884, 28.1459
885, 30.4905
886, 24.4104
887, 10.1843
888, 3.49666
889, 6.75417
890, 5.20305
891, -0.828856
892, 4.62066
893, 19.1931
894, 27.0934
895, 28.8436
896, 28.9453
897, 24.4997
898, 10.1566
899, -3.149
900, -2.58813
901, 6.73833
902, 20.6519
903, 25.1176
904, 13.4268
905, 5.50688
906, 9.02602
907, 18.637
908, 31.7149
909, 46.9268
910, 62.4903
911, 71.8752
912, 75.5536
913, 76.9845
914, 74.3924
915, 63.8621
916, 50.4569
917, 41.0213
918, 39.4915
919, 49.0745
920, 62.8752
921, 76.8456
922, 88.2025
923, 94.9334
924, 87.7116
925, 68.278
926, 60.6872
927, 64.8606
928, 65.8267
929, 67.1265
930, 81.079
931, 96.4383
932, 93.8857
933, 86.1658
934, 86.7121
935, 86.1786
936, 78.7729
937, 71.9076
938, 68.9225
939, 71.9241
940, 79.8969
941, 82.9661
942, 79.8942
943, 72.4367
944, 63.2824
945, 58.5815
946, 57.7089
947, 59.2528
948, 62.7421
949, 67.585
950, 64.379
951, 48.8745
952, 43.6352
953, 54.4471
954, 59.0337
955, 54.3987
956, 51.1482
957, 46.8381
958, 29.7483
959, 9.67561
960, 6.60063
961, 10.7472
962, 8.9911
963, 1.45091
964, -10.7411
965, -8.81013
966, 14.1202
967, 43.9335
968, 74.0255
969, 89.572
970, 86.8235
971, 60.7871
972, 24.9604
973, 5.42129
974, -1.50579
975, -0.728865
976, 6.7277
977, 20.1147
978, 37.0619
979, 54.4671
980, 54.0107
981, 35.0769
982, 13.3522
983, -3.30775
984, 0.44757
985, 16.8887
986, 32.0854
987, 42.3382
988, 44.4963
989, 35.415
990, 15.0237
991, 0.895873
992, -3.18979
993, -5.09619
994, -2.65793
995, 15.8591
996, 45.767
997, 76.2269
998, 99.395
999, 107.674
1000, 114.051
1001, 124.772
1002, 124.326
1003, 109.392
1004, 90.7569
1005, 68.0369
1006, 33.3478
1007, 0.15482
1008, -4.15692
1009, 8.21428
1010, 24.4673
1011, 39.7391
1012, 51.2526
1013, 58.4437
1014, 61.5229
1015, 62.8219
1016, 62.9681
1017, 62.7188
1018, 63.2238
1019, 66.4045
1020, 69.7936
1021, 71.0176
1022, 67.5208
1023, 58.4733
1024, 48.2184
1025, 37.8568
1026, 27.1351
1027, 16.1343
1028, 5.15089
1029, -1.31704
1030, 2.71712
1031, 7.90143
1032, 7.70902
1033, 3.76464
1034, -2.80052
1035, -8.57624
1036, -10.3803
1037, 2.17365
1038, 20.7725
1039, 26.6699
1040, 26.7247
1041, 27.1318
1042, 14.6625
1043, -13.5021
1044, -27.8454
1045, -25.4016
1046, -18.7251
1047, -9.1203
1048, 3.17529
1049, 13.5018
1050, 15.2139
1051, 12.8259
1052, 10.035
1053, 6.47033
1054, 1.83965
1055, -3.90964
1056, -1.63234
1057, 31.8559
1058, 85.0327
1059, 144.255
1060, 194.091
1061, 232.249
1062, 275.665
1063, 333.114
1064, 423.625
1065, 546.713
1066, 695.468
1067, 860.007
1068, 1029.91
1069, 1227.34
1070, 1462.5
1071, 1718.75
1072, 1986.52
1073, 2243.31
1074, 2482.65
1075, 2696.41
1076, 2874.56
1077, 3007.03
1078, 3080.82
1079, 3089.11
1080, 3025.33
1081, 2893.55
1082, 2713.57
1083, 2491.51
1084, 2234.91
1085, 1961.94
1086, 1686.82
1087, 1414.03
1088, 1147.98
1089, 905.508
1090, 692.908
1091, 519.708
1092, 379.454
1093, 263.246
1094, 170.195
1095, 99.1951
1096, 54.0238
1097, 26.8263
1098, 8.11384
1099, -7.21811
1100, -25.3397
1101, -28.6354
1102, -3.78509
1103, 6.39344
1104, -8.66791
1105, -18.6588
1106, -19.663
1107, -12.514
1108, 0.90689
1109, 18.2947
1110, 16.0581
1111, -12.3193
1112, -24.5481
1113, -16.9245
1114, -4.83782
1115, 1.97515
1116, -10.2881
1117, -14.7214
1118, 3.71146
1119, 20.7174
1120, 29.3699
1121, 31.0592
1122, 23.4296
1123, 2.00455
1124, -3.85721
1125, 24.2386
1126, 39.9285
1127, 33.6018
1128, 33.6955
1129, 40.7039
1130, 47.7547
1131, 64.1703
1132, 96.832
1133, 123.03
1134, 135.849
1135, 142.585
1136, 147.8
1137, 159.294
1138, 167.028
1139, 162.235
1140, 157.054
1141, 154.793
1142, 148.34
1143, 138.523
1144, 129.65
1145, 110.886
1146, 74.0221
1147, 50.7583
1148, 49.2546
1149, 50.3937
1150, 49.3585
1151, 41.7954
1152, 31.2842
1153, 21.4504
1154, 19.8835
1155, 25.2437
1156, 18.7629
1157, 3.09535
1158, -11.5911
1159, -18.0548
1160, -11.3953
1161, 0.622493
1162, 16.0363
1163, 33.6922
1164, 46.9214
1165, 48.1039
1166, 47.5794
1167, 51.236
1168, 54.7017
1169, 58.9078
1170, 70.3252
1171, 86.8731
1172, 105.265
1173, 125.945
1174, 148.338
1175, 167.193
1176, 186.197
1177, 216.839
1178, 250.499
1179, 278.168
1180, 291.211
1181, 288.987
1182, 282.65
1183, 276.071
1184, 273.466
1185, 259.905
1186, 227.21
1187, 188.589
1188, 148.26
1189, 109.311
1190, 75.6188
1191, 51.179
1192, 28.4388
1193, 6.97497
1194, 2.93248
1195, 13.0034
1196, 27.408
1197, 33.8054
1198, 26.747
1199, 29.6002
1200, 44.8065
1201, 59.7564
1202, 72.1761
1203, 80.254
1204, 77.6791
1205, 67.4399
1206, 80.2809
1207, 103.824
1208, 105.093
1209, 85.6353
1210, 50.7339
1211, 34.1807
1212, 40.2492
1213, 57.5493
1214, 68.4674
1215, 56.1333
1216, 30.6552
1217, 2.88519
1218, 4.441
1219, 22.2474
1220, 29.7403
1221, 25.3828
1222, 10.0841
1223, -6.20586
1224, -16.4803
1225, -9.16917
1226, -0.470949
1227, -1.04763
1228, -1.69249
1229, 3.38186
1230, 25.063
1231, 55.8906
1232, 82.5477
1233, 96.9492
1234, 100.034
1235, 105.97
1236, 116.805
1237, 133.252
1238, 152.139
1239, 174.556
1240, 212.819
1241, 261.635
1242, 308.779
1243, 334.484
1244, 331.051
1245, 315.935
1246, 307.223
1247, 335.285
1248, 363.087
1249, 370.416
1250, 390.509
1251, 419.436
1252, 430.697
1253, 441.096
1254, 460.014
1255, 447.679
1256, 413.38
1257, 409.609
1258, 419.684
1259, 426.198
1260, 423.666
1261, 413.359
1262, 403.709
1263, 395.071
1264, 387.652
1265, 386.616
1266, 385.438
1267, 358.102
1268, 327.7
1269, 318.075
1270, 310.737
1271, 300.688
1272, 290.547
1273, 275.919
1274, 253.444
1275, 241.906
1276, 239.716
1277, 221.866
1278, 193.613
1279, 163.662
1280, 149.473
1281, 149.348
1282, 140.527
1283, 122.955
1284, 99.7245
1285, 88.6609
1286, 93.283
1287, 108.51
1288, 109.955
1289, 79.0753
1290, 44.4795
1291, 19.8352
1292, 23.5144
1293, 34.3072
1294, 32.8311
1295, 24.5218
1296, 13.8677
1297, 8.51479
1298, 6.5768
1299, 5.40486
1300, 2.10804
1301, 0.103761
1302, 7.85417
1303, 21.9066
1304, 36.5073
1305, 30.3579
1306, 8.86166
1307, -12.5806
1308, -15.9868
1309, 0.613868
1310, 9.72124
1311, 9.39514
1312, 2.17283
1313, -7.00463
1314, -12.1574
1315, 3.37201
1316, 21.7677
1317, 24.0446
1318, 22.9562
1319, 23.0809
1320, 27.1823
1321, 26.2041
1322, 15.7861
1323, 11.7228
1324, 12.5958
1325, 9.80166
1326, 10.6348
1327, 15.1427
1328, 4.82856
1329, -3.71123
1330, 13.1192
1331, 25.6752
1332, 23.989
1333, 10.7111
1334, -6.50529
1335, -19.2258
1336, -5.92959
1337, 24.7036
1338, 38.7454
1339, 35.8516
1340, 19.515
1341, 5.69317
1342, 2.8146
1343, 17.7991
1344, 14.1596
1345, -7.74305
1346, -3.25687
1347, 14.6778
1348, 31.0377
1349, 39.1841
1350, 36.9863
1351, 23.656
1352, 18.3539
1353, 27.9111
1354, 38.7431
1355, 39.9564
1356, 23.4111
1357, 24.8002
1358, 42.8434
1359, 45.8971
1360, 40.9392
1361, 33.926
1362, 26.7312
1363, 27.9032
1364, 48.0631
1365, 59.2047
1366, 51.9436
1367, 28.9087
1368, 11.3504
1369, 15.8854
1370, 38.8194
1371, 62.8215
1372, 63.8058
1373, 60.3382
1374, 61.4272
1375, 71.9221
1376, 85.9948
1377, 98.0558
1378, 104.38
1379, 105.261
1380, 102.785
1381, 103.384
1382, 108.621
1383, 115.127
1384, 134.6
1385, 173.591
1386, 211.803
1387, 237.081
1388, 237.313
1389, 235.184
1390, 237.625
1391, 239.836
1392, 243.73
1393, 247.785
1394, 233.721
1395, 220.403
1396, 236.264
1397, 258.127
1398, 276.268
1399, 284.792
1400, 288.883
1401, 291.375
1402, 290.981
1403, 286.184
1404, 277.207
1405, 279.308
1406, 288.563
1407, 289.668
1408, 266.662
1409, 224.518
1410, 201.817
1411, 195.652
1412, 198.367
1413, 190.73
1414, 168.732
1415, 133.229
1416, 107.561
1417, 92.7371
1418, 75.9263
1419, 58.4998
1420, 41.9073
1421, 28.2171
1422, 17.4392
1423, 11.1545
1424, 8.59474
1425, 9.91601
1426, 15.5405
1427, 20.8511
1428, 24.3284
1429, 24.6436
1430, 12.8053
1431, -7.02138
1432, -7.16182
1433, 0.0235597
1434, 5.6745
1435, 15.5729
1436, 15.2309
1437, -7.96988
1438, -5.51774
1439, 9.82076
1440, -4.54291
1441, -12.3747
1442, -3.98918
1443, 12.3922
1444, 44.7114
1445, 82.7929
1446, 68.4832
1447, 38.5998
1448, 26.4034
1449, 21.6925
1450, 22.1382
1451, 25.3057
1452, 15.2824
1453, 3.10202
1454, 14.45
1455, 27.4742
1456, 32.5092
1457, 25.6153
1458, 30.7324
1459, 50.3208
1460, 51.8503
1461, 39.6787
1462, 21.7972
1463, 13.3352
1464, 21.0522
1465, 44.9222
1466, 71.8087
1467, 82.7147
1468, 61.3406
1469, 59.9752
1470, 72.7627
1471, 68.061
1472, 70.6761
1473, 75.057
1474, 51.2218
1475, 41.7087
1476, 54.9478
1477, 61.0967
1478, 67.3912
1479, 77.2211
1480, 84.727
1481, 92.3038
1482, 96.8874
1483, 74.9267
1484, 45.3398
1485, 27.9867
1486, 28.1102
1487, 33.9716
1488, 32.9764
1489, 33.2295
1490, 32.185
1491, 25.3483
1492, 22.7378
1493, 15.5518
1494, -9.31938
1495, 4.19432
1496, 42.0515
1497, 45.386
1498, 33.9511
1499, 13.8835
1500, -14.7516
1501, -10.976
1502, 21.2644
1503, 32.2028
1504, 21.8467
1505, 1.69002
1506, 0.295678
1507, 4.47442
1508, 7.68052
1509, 11.6869
1510, 10.2465
1511, 5.42046
1512, 15.0786
1513, 20.8565
1514, 16.2169
1515, 18.9242
1516, 29.876
1517, 43.4556
1518, 39.9785
1519, 30.2611
1520, 24.3493
1521, 28.9047
1522, 33.4732
1523, 29.8842
1524, 15.9872
1525, 9.20597
1526, 15.603
1527, 8.46416
1528, -1.23405
1529, -1.58716
1530, 16.2248
1531, 43.832
1532, 65.4257
1533, 43.1006
1534, 5.07787
1535, -19.9801
1536, -9.54827
1537, 12.4721
1538, 24.6539
1539, 12.5763
1540, -2.20566
1541, -4.90478
1542, 4.38903
1543, 8.47604
1544, 0.409304
1545, -5.97415
1546, 3.28925
1547, 28.2888
1548, 42.3143
1549, 30.1556
1550, -1.73366
1551, -14.4077
1552, -16.2831
1553, -13.045
1554, -6.56586
1555, 8.70481
1556, 23.7405
1557, 11.647
1558, -7.85704
1559, -26.3856
1560, -37.6006
1561, -13.775
1562, 30.2922
1563, 53.988
1564, 88.235
1565, 144.574
1566, 214.584
1567, 302.694
1568, 400.612
1569, 501.274
1570, 637.361
1571, 801.585
1572, 980.146
1573, 1173.47
1574, 1369.45
1575, 1562.9
1576, 1774.16
1577, 1956.79
1578, 2081.5
1579, 2156.94
1580, 2185.21
1581, 2167.53
1582, 2103.8
1583, 1962.05
1584, 1749.83
1585, 1513.24
1586, 1285.82
1587, 1078.25
1588, 889.699
1589, 704.194
1590, 530.715
1591, 386.933
1592, 285.656
1593, 205.033
1594, 129.827
1595, 86.2381
1596, 57.9644
1597, 31.1781
1598, 24.2871
1599, 2.55998
1600, -27.9324
1601, -15.9529
1602, -9.89745
1603, -14.0511
1604, -8.86151
1605, 0.800592
1606, 12.2148
1607, 19.5976
1608, 6.30242
1609, -15.5731
1610, -29.4944
1611, -11.8726
1612, 7.27134
1613, 13.9896
1614, 14.9117
1615, 12.3565
1616, 10.0325
1617, 11.5333
1618, 3.69386
1619, -1.45471
1620, 8.54196
1621, 13.4277
1622, 18.4532
1623, 23.2318
1624, 9.03139
1625, -4.45669
1626, -10.1806
1627, -13.0071
1628, -19.0317
1629, -14.3678
1630, 15.1438
1631, 26.7715
1632, 26.3327
1633, 20.0345
1634, -4.74022
1635, -1.29963
1636, 22.4402
1637, 3.83865
1638, -7.91171
1639, -1.93998
1640, 15.5643
1641, 27.1395
1642, 21.336
1643, 2.08193
1644, 2.46908
1645, 14.3248
1646, 22.0181
1647, 7.38927
1648, -1.52317
1649, 2.2959
1650, 14.7624