File: Raman_Spectroscopy_GAN/input/clinical_sample/s9/s9_1_785M-T_Rlab.csv
a,b
320, 21.1392
321, 18.9811
322, 16.7835
323, 13.7808
324, 8.72463
325, -0.576551
326, -10.8749
327, -10.3111
328, 0.772296
329, 7.23718
330, 5.09575
331, 3.0461
332, 6.16574
333, 8.9761
334, 4.92939
335, -1.16591
336, 3.88422
337, 18.4414
338, 24.0674
339, 18.5728
340, 19.3848
341, 33.1135
342, 43.9721
343, 38.9709
344, 26.9747
345, 24.3977
346, 27.6257
347, 21.0953
348, 5.22752
349, -0.767034
350, 6.82806
351, 17.4518
352, 25.6228
353, 32.3897
354, 38.9395
355, 42.4836
356, 36.3302
357, 22.088
358, 9.36199
359, -0.0894785
360, -0.781304
361, 8.73806
362, 15.5837
363, 11.6108
364, 2.68826
365, -2.88063
366, -4.63765
367, -0.0543299
368, 10.3223
369, 19.6415
370, 26.8065
371, 32.1405
372, 35.7452
373, 36.5277
374, 33.7347
375, 31.4068
376, 35.4862
377, 41.8816
378, 38.4651
379, 26.5907
380, 19.1718
381, 17.8352
382, 14.0516
383, 4.96475
384, 0.251122
385, 5.65388
386, 14.8237
387, 18.8265
388, 17.7298
389, 11.8963
390, 1.9785
391, -8.34886
392, -18.9482
393, -22.353
394, -16.3674
395, -7.49995
396, 0.903432
397, 5.55136
398, 1.90223
399, -5.43737
400, -5.55226
401, 1.63259
402, 15.0845
403, 35.3193
404, 58.2937
405, 78.912
406, 95.957
407, 108.855
408, 123.25
409, 144.279
410, 169.726
411, 195.633
412, 219.677
413, 234.44
414, 241.478
415, 254.579
416, 275.424
417, 292.017
418, 300.353
419, 305.645
420, 311.133
421, 312.877
422, 306.136
423, 294.592
424, 286.44
425, 279.325
426, 262.533
427, 237.231
428, 221.633
429, 219.109
430, 218.512
431, 215.462
432, 208.259
433, 195.706
434, 174.706
435, 141.141
436, 102.866
437, 78.5785
438, 65.9917
439, 52.0883
440, 35.6533
441, 22.2037
442, 10.9227
443, 2.60246
444, -2.7778
445, 2.12987
446, 23.1757
447, 50.4288
448, 71.7711
449, 86.7471
450, 94.4401
451, 94.7926
452, 87.7104
453, 74.6001
454, 65.1526
455, 60.5989
456, 52.109
457, 37.0097
458, 28.1316
459, 32.6739
460, 36.4055
461, 25.3228
462, 7.59236
463, -1.93352
464, -5.6042
465, -8.53128
466, -9.26881
467, 2.14486
468, 25.1299
469, 31.3485
470, 15.1209
471, -0.482041
472, -6.3021
473, -8.37352
474, -10.5208
475, -11.2157
476, -8.52548
477, -4.18797
478, -1.6271
479, 2.02405
480, 15.561
481, 36.8293
482, 52.5859
483, 61.1074
484, 63.9557
485, 61.8201
486, 61.0171
487, 64.0114
488, 67.4526
489, 69.2107
490, 68.9456
491, 66.2969
492, 61.052
493, 52.8423
494, 43.4354
495, 37.6918
496, 34.1581
497, 25.2891
498, 11.1979
499, -0.86615
500, -9.37796
501, -12.9995
502, -11.2886
503, -0.215221
504, 23.2008
505, 43.5998
506, 49.0202
507, 46.1787
508, 43.5626
509, 43.0443
510, 52.5599
511, 66.9798
512, 83.5443
513, 100.333
514, 109.297
515, 111.945
516, 127.289
517, 157.682
518, 181.79
519, 192.924
520, 193.45
521, 184.51
522, 168.628
523, 147.616
524, 131.188
525, 130.241
526, 136.559
527, 136.104
528, 130.295
529, 123.316
530, 115.886
531, 109.937
532, 104.018
533, 88.9216
534, 64.9661
535, 48.0639
536, 46.5251
537, 55.274
538, 67.7196
539, 76.0422
540, 76.298
541, 72.4323
542, 67.3586
543, 67.9145
544, 81.6791
545, 101.006
546, 113.462
547, 116.717
548, 105.78
549, 86.1377
550, 76.5016
551, 77.3807
552, 84.2515
553, 94.9005
554, 97.8903
555, 91.4203
556, 80.0115
557, 65.306
558, 54.9665
559, 51.8034
560, 48.8087
561, 42.2457
562, 38.4948
563, 42.3546
564, 44.5962
565, 35.267
566, 21.1445
567, 12.5318
568, 7.33207
569, -2.18645
570, -12.446
571, -11.0011
572, -1.22535
573, 1.09221
574, -3.60031
575, -5.70852
576, -4.66233
577, -5.71866
578, -9.32978
579, -7.07771
580, 3.61218
581, 21.219
582, 43.9574
583, 55.845
584, 49.0125
585, 38.3394
586, 33.7406
587, 31.3218
588, 27.588
589, 26.6809
590, 33.6607
591, 37.1544
592, 18.7081
593, -7.46319
594, -11.5289
595, 1.52024
596, 17.7841
597, 34.0752
598, 42.7254
599, 43.5788
600, 39.0142
601, 30.6875
602, 26.869
603, 28.0553
604, 26.8299
605, 21.7008
606, 14.426
607, 5.71054
608, -0.947432
609, -4.34305
610, -3.77874
611, 1.12419
612, 2.78514
613, -3.16382
614, -7.47664
615, -3.53495
616, 4.04306
617, 11.453
618, 18.7634
619, 26.5253
620, 32.7346
621, 34.4672
622, 33.7397
623, 34.2307
624, 36.0032
625, 39.0308
626, 42.1397
627, 42.179
628, 39.8101
629, 37.7576
630, 37.6648
631, 45.2162
632, 57.3941
633, 56.7498
634, 44.5703
635, 42.2346
636, 50.8238
637, 52.2674
638, 44.8478
639, 46.5187
640, 59.8533
641, 63.4032
642, 52.5125
643, 51.8798
644, 68.7671
645, 77.0383
646, 66.6116
647, 51.7809
648, 39.2012
649, 24.5425
650, 5.54786
651, -6.50537
652, -6.00302
653, -0.627462
654, 4.39384
655, 11.6953
656, 22.6929
657, 30.1054
658, 26.5142
659, 17.4441
660, 9.44148
661, 2.29484
662, -4.06959
663, -6.67003
664, -0.141518
665, 10.6
666, 15.6538
667, 16.6792
668, 17.3246
669, 17.3757
670, 16.1393
671, 15.3787
672, 19.506
673, 25.6362
674, 25.3097
675, 20.4869
676, 18.5697
677, 18.478
678, 14.9101
679, 8.50739
680, 3.18996
681, -0.894407
682, -6.31175
683, -9.87803
684, 5.49179
685, 38.3475
686, 63.7769
687, 79.1621
688, 87.5457
689, 90.2535
690, 92.3244
691, 94.1005
692, 92.7906
693, 86.8922
694, 69.5849
695, 41.7472
696, 18.7001
697, 4.64057
698, 9.08685
699, 31.6912
700, 49.3255
701, 56.692
702, 50.6257
703, 31.8768
704, 14.4022
705, 2.04033
706, -0.912876
707, 5.72669
708, 16.7012
709, 29.0626
710, 34.0501
711, 30.4427
712, 31.8517
713, 40.765
714, 40.9298
715, 29.2084
716, 25.0291
717, 32.4038
718, 29.2784
719, 10.9203
720, 1.99799
721, 8.63316
722, 9.59849
723, -0.110304
724, -1.14998
725, 10.6112
726, 12.2391
727, -1.76428
728, -10.1525
729, -7.85364
730, -3.57246
731, 0.226119
732, 1.90094
733, 1.25017
734, 3.74979
735, 9.88352
736, 7.83423
737, -4.06931
738, -5.64548
739, 6.7954
740, 11.3767
741, 3.59179
742, 1.97839
743, 9.98828
744, 14.6861
745, 14.0705
746, 20.447
747, 35.227
748, 43.6859
749, 42.6746
750, 35.0818
751, 23.607
752, 24.3365
753, 37.9902
754, 44.7175
755, 41.3758
756, 33.701
757, 22.8171
758, 9.01262
759, -5.285
760, -6.7705
761, 4.65122
762, 19.4394
763, 32.7759
764, 31.0139
765, 16.6746
766, 9.52501
767, 12.0799
768, 19.8597
769, 30.3706
770, 35.6383
771, 34.9502
772, 28.5034
773, 18.4962
774, 11.7503
775, 9.60258
776, 15.4037
777, 24.0819
778, 24.7602
779, 21.0793
780, 22.6523
781, 25.1165
782, 18.711
783, 7.86924
784, 1.26224
785, 1.60127
786, 12.8185
787, 28.8787
788, 41.2963
789, 50.8334
790, 58.5242
791, 60.1079
792, 50.9783
793, 39.4639
794, 33.2577
795, 27.1456
796, 17.0492
797, 9.70883
798, 10.611
799, 14.9167
800, 18.6504
801, 20.9686
802, 21.5641
803, 23.3561
804, 27.8501
805, 39.4043
806, 58.4225
807, 68.7309
808, 65.4465
809, 50.5634
810, 26.7043
811, 11.0521
812, 5.68982
813, -0.133098
814, -7.14237
815, -5.74904
816, 2.01144
817, 0.693579
818, -6.6084
819, -2.11485
820, 10.103
821, 11.8163
822, 8.32552
823, 15.6448
824, 27.9521
825, 32.0304
826, 29.9667
827, 25.8132
828, 20.6503
829, 15.8329
830, 11.0177
831, 5.84026
832, 2.03451
833, 1.23835
834, 3.58562
835, 9.38684
836, 15.6593
837, 20.9948
838, 24.57
839, 26.1729
840, 27.7579
841, 29.4335
842, 25.6451
843, 16.4556
844, 13.1807
845, 16.4594
846, 16.9969
847, 13.7131
848, 8.12871
849, 0.931733
850, -6.08583
851, -11.1961
852, -9.03538
853, -2.29459
854, 3.35821
855, 9.60624
856, 18.0743
857, 25.5067
858, 28.1599
859, 31.0694
860, 38.3933
861, 42.4754
862, 38.8168
863, 38.2251
864, 45.0973
865, 46.1418
866, 37.304
867, 26.75
868, 16.91
869, 9.32415
870, 4.81725
871, 6.54022
872, 14.6584
873, 27.0645
874, 39.0322
875, 37.8202
876, 26.8379
877, 14.6276
878, 4.0375
879, -0.627766
880, 2.26881
881, 15.1785
882, 25.8695
883, 25.5169
884, 24.4074
885, 27.743
886, 27.9288
887, 23.1408
888, 26.6528
889, 39.1071
890, 37.8952
891, 22.308
892, 10.9855
893, 5.97808
894, 6.32207
895, 13.8937
896, 32.8702
897, 52.7117
898, 54.8646
899, 40.6694
900, 12.1723
901, -10.9558
902, -14.1991
903, -3.42047
904, 18.9228
905, 43.4255
906, 64.6504
907, 64.9742
908, 44.2906
909, 32.0092
910, 29.356
911, 19.3643
912, 4.45312
913, -2.52071
914, -3.08432
915, -0.444021
916, 8.57589
917, 27.9565
918, 40.8919
919, 33.2762
920, 19.961
921, 9.81543
922, 12.6892
923, 30.2864
924, 42.1182
925, 44.8775
926, 47.7689
927, 51.7075
928, 54.5111
929, 58.8114
930, 71.6464
931, 85.4966
932, 87.5362
933, 86.193
934, 90.3016
935, 89.1161
936, 76.0067
937, 60.2106
938, 46.0807
939, 38.3437
940, 38.3118
941, 46.0482
942, 56.3321
943, 49.1864
944, 30.652
945, 20.2673
946, 19.612
947, 24.5757
948, 31.631
949, 37.3002
950, 33.14
951, 15.415
952, 5.84041
953, 11.4667
954, 18.0247
955, 20.2813
956, 8.01168
957, -11.6608
958, -14.2118
959, -1.7351
960, 20.2723
961, 39.6904
962, 42.6777
963, 32.3289
964, 11.6916
965, 2.19235
966, 10.63
967, 15.1943
968, 12.0753
969, 9.6908
970, 8.13902
971, 3.96075
972, 3.8696
973, 20.2119
974, 33.6535
975, 23.1686
976, 10.4913
977, 8.64182
978, 3.3724
979, -7.81973
980, -4.74184
981, 11.3856
982, 12.6566
983, 1.58653
984, -5.95941
985, -6.36219
986, 5.83879
987, 25.9913
988, 47.9763
989, 58.3142
990, 52.1354
991, 50.8291
992, 60.0796
993, 76.9751
994, 98.7732
995, 118.146
996, 132.015
997, 135.686
998, 141.172
999, 160.493
1000, 167.989
1001, 150.81
1002, 132.421
1003, 118.663
1004, 98.4226
1005, 72.224
1006, 48.6339
1007, 27.8021
1008, 8.62827
1009, 1.08915
1010, 13.5838
1011, 23.5127
1012, 16.8308
1013, 3.40558
1014, -11.0892
1015, -14.6893
1016, -5.91122
1017, 14.8953
1018, 42.5367
1019, 62.8868
1020, 82.0332
1021, 105.504
1022, 124.016
1023, 132.648
1024, 127.282
1025, 109.855
1026, 95.0928
1027, 84.8645
1028, 78.9349
1029, 78.4414
1030, 84.8544
1031, 83.3513
1032, 64.6164
1033, 46.4398
1034, 34.6304
1035, 23.8118
1036, 12.9821
1037, 3.54835
1038, -6.07235
1039, -18.0313
1040, -23.6281
1041, -14.5364
1042, 4.42628
1043, 30.4059
1044, 43.7568
1045, 42.701
1046, 39.4313
1047, 36.8695
1048, 38.3993
1049, 37.2511
1050, 26.0993
1051, 15.1013
1052, 9.5111
1053, 7.18697
1054, 7.33453
1055, 5.59764
1056, -0.426634
1057, -15.2937
1058, -25.1214
1059, -12.807
1060, 12.2534
1061, 45.6526
1062, 79.7083
1063, 107.557
1064, 133.184
1065, 158.716
1066, 187.924
1067, 221.6
1068, 260.315
1069, 297.397
1070, 329.829
1071, 363.235
1072, 398.372
1073, 432.098
1074, 462.676
1075, 487.211
1076, 497.9
1077, 487.46
1078, 465.605
1079, 436.049
1080, 392.354
1081, 340.401
1082, 306.434
1083, 282.185
1084, 249.354
1085, 214.377
1086, 181.687
1087, 137.268
1088, 81.4066
1089, 46.569
1090, 31.7024
1091, 22.3893
1092, 14.808
1093, 5.81233
1094, -4.4879
1095, -15.453
1096, -16.8955
1097, -8.23536
1098, 2.31295
1099, 9.71866
1100, 4.11545
1101, -2.87055
1102, -2.25304
1103, -2.52894
1104, -6.10043
1105, -8.45603
1106, -7.34732
1107, 1.72451
1108, 16.6683
1109, 33.1544
1110, 36.9775
1111, 23.3358
1112, 11.3425
1113, 6.9648
1114, 15.9014
1115, 27.8448
1116, 26.5046
1117, 16.5827
1118, 2.19697
1119, -4.66665
1120, -2.47492
1121, 4.44201
1122, 10.6419
1123, 6.63808
1124, 3.41012
1125, 9.03439
1126, 12.2745
1127, 11.0463
1128, 12.7344
1129, 16.0617
1130, 16.307
1131, 16.3121
1132, 18.1534
1133, 13.3013
1134, 2.14107
1135, 3.5785
1136, 17.2589
1137, 35.5173
1138, 49.9815
1139, 53.2434
1140, 44.8052
1141, 27.2665
1142, 15.9512
1143, 11.4591
1144, 9.8724
1145, 9.35319
1146, 8.23192
1147, 3.97463
1148, -2.6387
1149, -5.27865
1150, -3.50507
1151, 2.17749
1152, 7.53322
1153, 8.78406
1154, 13.2751
1155, 21.6279
1156, 24.8054
1157, 20.3954
1158, 6.08502
1159, -4.08088
1160, -0.254713
1161, 16.2997
1162, 40.9024
1163, 56.5408
1164, 60.1054
1165, 49.6143
1166, 35.5943
1167, 24.1877
1168, 12.7636
1169, 2.12447
1170, -2.83863
1171, -1.42738
1172, 7.24058
1173, 12.8048
1174, 10.6399
1175, 3.31312
1176, -3.28616
1177, 2.75031
1178, 16.9478
1179, 33.4976
1180, 47.7803
1181, 56.7234
1182, 53.668
1183, 44.0009
1184, 38.7119
1185, 32.2942
1186, 22.1583
1187, 18.2442
1188, 22.5857
1189, 33.9297
1190, 44.6977
1191, 45.7367
1192, 29.4952
1193, -0.728603
1194, -9.04718
1195, 2.55576
1196, 21.6361
1197, 34.4092
1198, 31.842
1199, 17.7585
1200, 3.15298
1201, 21.4616
1202, 50.7207
1203, 61.8096
1204, 68.1307
1205, 75.5713
1206, 84.7878
1207, 94.6602
1208, 102.669
1209, 93.6204
1210, 61.3522
1211, 41.4736
1212, 36.3357
1213, 27.6183
1214, 17.4745
1215, 9.05113
1216, -2.03365
1217, -13.0013
1218, 0.202718
1219, 23.3862
1220, 28.2306
1221, 23.8356
1222, 15.5447
1223, 6.53342
1224, -1.57671
1225, -6.64614
1226, -8.65855
1227, -7.36411
1228, -1.3575
1229, 8.28611
1230, 15.8144
1231, 14.1556
1232, -1.71407
1233, -7.51236
1234, 1.68351
1235, 16.3463
1236, 30.1431
1237, 36.1439
1238, 31.2991
1239, 18.7685
1240, 22.7661
1241, 41.548
1242, 63.8607
1243, 82.0535
1244, 92.8009
1245, 100.442
1246, 104.386
1247, 101.971
1248, 103.502
1249, 113.637
1250, 116.395
1251, 113.933
1252, 119.645
1253, 127.385
1254, 132.966
1255, 144.914
1256, 159.603
1257, 161.294
1258, 152.743
1259, 138.36
1260, 132.253
1261, 135.033
1262, 136.727
1263, 133.826
1264, 123.583
1265, 105.169
1266, 86.9669
1267, 96.8019
1268, 110.395
1269, 102.163
1270, 85.1895
1271, 63.2235
1272, 35.1278
1273, 16.5344
1274, 22.9565
1275, 20.6976
1276, 6.70129
1277, 5.10753
1278, 8.55343
1279, 9.13065
1280, 19.6191
1281, 36.6391
1282, 39.6565
1283, 35.1132
1284, 30.9179
1285, 29.3594
1286, 30.9632
1287, 35.2962
1288, 37.8764
1289, 34.3003
1290, 19.7047
1291, 1.37665
1292, 2.749
1293, 3.77479
1294, -9.06207
1295, -8.30609
1296, 9.04149
1297, 34.5584
1298, 57.9268
1299, 71.1084
1300, 64.3518
1301, 42.3702
1302, 18.9566
1303, 8.59704
1304, 16.3844
1305, 19.8675
1306, 20.4656
1307, 25.9519
1308, 25.0649
1309, 14.8809
1310, 5.87643
1311, -1.27064
1312, -7.44122
1313, -12.4068
1314, -12.3511
1315, 6.79352
1316, 20.9714
1317, 7.44532
1318, 2.20876
1319, 7.72235
1320, 3.69683
1321, 8.69321
1322, 30.3375
1323, 27.4051
1324, 7.71005
1325, 1.98365
1326, 4.49753
1327, 12.1788
1328, 25.0218
1329, 35.2214
1330, 32.7147
1331, 26.88
1332, 21.75
1333, 19.5314
1334, 19.0324
1335, 18.8962
1336, 17.7733
1337, 13.0886
1338, 0.107483
1339, -6.18962
1340, -0.56371
1341, 2.53113
1342, 11.1046
1343, 37.1044
1344, 44.1061
1345, 30.4969
1346, 35.4688
1347, 38.9188
1348, 24.9576
1349, 27.0801
1350, 39.1144
1351, 33.441
1352, 26.1091
1353, 21.7462
1354, 2.06966
1355, -11.9302
1356, 3.4373
1357, 19.3375
1358, 30.6498
1359, 48.7274
1360, 55.7551
1361, 44.3055
1362, 41.282
1363, 41.2854
1364, 30.4583
1365, 21.0964
1366, 17.0043
1367, 15.9816
1368, 17.3304
1369, 19.9213
1370, 18.783
1371, 10.704
1372, -7.06346
1373, -13.5282
1374, -4.0132
1375, 11.0341
1376, 23.5863
1377, 27.2617
1378, 20.0905
1379, 9.8407
1380, 9.94163
1381, 7.5687
1382, 1.35913
1383, 1.28969
1384, 13.7128
1385, 40.3661
1386, 64.0169
1387, 72.8585
1388, 54.8449
1389, 40.7463
1390, 37.8486
1391, 33.2922
1392, 33.6954
1393, 42.4962
1394, 48.9291
1395, 60.0385
1396, 84.5234
1397, 75.8738
1398, 37.4811
1399, 14.9181
1400, 7.85969
1401, 14.5822
1402, 40.1887
1403, 64.1026
1404, 65.7441
1405, 63.7735
1406, 61.1651
1407, 54.8468
1408, 41.8375
1409, 23.8865
1410, 10.9294
1411, 3.66157
1412, 3.18161
1413, 14.2149
1414, 19.7975
1415, -0.344483
1416, -12.9878
1417, -13.6248
1418, -10.7837
1419, 2.89304
1420, 24.0549
1421, 23.196
1422, 16.5171
1423, 18.7166
1424, 26.8638
1425, 30.6455
1426, 18.2091
1427, 7.59311
1428, 2.71301
1429, 1.1788
1430, 11.383
1431, 28.389
1432, 22.0787
1433, 9.58919
1434, 4.59571
1435, 4.64823
1436, 11.2031
1437, 25.108
1438, 38.041
1439, 42.0902
1440, 27.803
1441, 15.8447
1442, 12.1107
1443, 11.6469
1444, 13.0492
1445, 13.409
1446, 3.62554
1447, -1.56312
1448, 8.79626
1449, 29.6053
1450, 45.8795
1451, 43.591
1452, 42.6367
1453, 43.6857
1454, 39.547
1455, 37.5806
1456, 36.3586
1457, 26.2807
1458, 27.462
1459, 42.741
1460, 46.9424
1461, 43.8823
1462, 39.4673
1463, 42.6254
1464, 46.2838
1465, 43.5352
1466, 40.3476
1467, 41.8947
1468, 52.5575
1469, 63.2246
1470, 65.0838
1471, 47.7582
1472, 25.2131
1473, 8.47352
1474, 12.3311
1475, 29.4526
1476, 48.9605
1477, 53.1502
1478, 38.839
1479, 12.637
1480, 2.90924
1481, 5.95703
1482, 17.6789
1483, 38.1899
1484, 53.4663
1485, 51.5096
1486, 33.6839
1487, 8.74538
1488, -10.4793
1489, 0.972752
1490, 29.4044
1491, 46.984
1492, 44.9277
1493, 33.2951
1494, 29.9899
1495, 17.4014
1496, 0.209678
1497, -3.84306
1498, -5.48548
1499, -1.50593
1500, 21.7792
1501, 29.4532
1502, 19.6438
1503, 20.8386
1504, 18.1862
1505, 7.7858
1506, -1.57408
1507, -6.26295
1508, -6.42883
1509, -5.93533
1510, -3.64524
1511, 0.847073
1512, 6.25283
1513, 17.4714
1514, 32.8332
1515, 35.7612
1516, 32.3766
1517, 25.0261
1518, 4.89148
1519, -3.00558
1520, 12.6369
1521, 30.4599
1522, 38.6633
1523, 32.4634
1524, 19.1083
1525, 7.80262
1526, 3.77892
1527, 4.51456
1528, 0.674881
1529, -7.87631
1530, 3.05896
1531, 12.9198
1532, 8.91339
1533, 11.5345
1534, 12.7387
1535, 10.2129
1536, 23.901
1537, 34.9782
1538, 31.4809
1539, 22.2094
1540, 7.62886
1541, -7.61467
1542, -5.93287
1543, 2.71231
1544, 11.2117
1545, 16.6947
1546, 17.962
1547, 15.9158
1548, 15.5433
1549, 27.6433
1550, 50.6643
1551, 63.9988
1552, 68.457
1553, 62.8706
1554, 42.8597
1555, 42.6144
1556, 51.1028
1557, 11.2955
1558, -13.193
1559, -11.6858
1560, -5.78964
1561, 21.0173
1562, 53.5463
1563, 51.1308
1564, 47.708
1565, 59.7062
1566, 92.8875
1567, 107.273
1568, 108.865
1569, 114.401
1570, 105.659
1571, 104.232
1572, 130.192
1573, 152.493
1574, 174.066
1575, 199.001
1576, 217.78
1577, 222.383
1578, 211.05
1579, 193.615
1580, 184.896
1581, 192.516
1582, 215.827
1583, 217.155
1584, 190.001
1585, 153.444
1586, 113.089
1587, 75.0388
1588, 46.0122
1589, 19.7687
1590, 1.7377
1591, -4.07103
1592, 0.253075
1593, 2.69719
1594, -3.61847
1595, -3.31861
1596, -0.333427
1597, 1.70399
1598, 2.59645
1599, 8.29336
1600, 15.7412
1601, 13.3015
1602, 19.4131
1603, 25.7521
1604, 12.7042
1605, 21.7412
1606, 36.1628
1607, 27.948
1608, 10.4409
1609, -0.490543
1610, 3.12418
1611, 11.9202
1612, 10.3548
1613, 0.307096
1614, 5.36567
1615, 27.166
1616, 53.6686
1617, 65.7762
1618, 67.3585
1619, 58.1107
1620, 38.3383
1621, 16.8561
1622, -2.65013
1623, -10.7677
1624, 15.8618
1625, 27.8522
1626, 16.1519
1627, 9.8267
1628, 7.33193
1629, 15.6609
1630, 38.1541
1631, 44.7124
1632, 38.936
1633, 27.6987
1634, 12.0729
1635, 1.1462
1636, -2.50548
1637, -2.4331
1638, 8.42781
1639, 24.8387
1640, 34.6338
1641, 23.8798
1642, 23.2489
1643, 43.6167
1644, 43.1756
1645, 45.0791
1646, 38.5908
1647, -9.06763
1648, -14.0641
1649, 6.15415
1650, 17.5343