File: Raman_Spectroscopy_GAN/input/clinical_sample/s9/s9_2_785M-T_Rlab.csv
a,b
320, -5.36315
321, 3.64424
322, 16.4328
323, 31.2589
324, 42.0441
325, 38.1181
326, 23.7468
327, 16.138
328, 16.0502
329, 14.3071
330, 8.69162
331, 3.64977
332, 1.98666
333, 0.473137
334, -4.91851
335, -10.5383
336, -5.36762
337, 10.0424
338, 26.4228
339, 40.9942
340, 55.3793
341, 70.1811
342, 78.4694
343, 74.5423
344, 63.2528
345, 53.5869
346, 45.6852
347, 39.3172
348, 35.1738
349, 39.9411
350, 54.9265
351, 67.0483
352, 69.5662
353, 62.5454
354, 46.0601
355, 26.173
356, 17.4269
357, 20.7021
358, 26.6812
359, 33.7574
360, 34.7427
361, 27.5025
362, 17.7146
363, 8.94613
364, 6.17103
365, 14.6954
366, 29.2555
367, 36.7842
368, 37.4473
369, 36.7626
370, 35.7098
371, 35.5451
372, 36.6838
373, 37.2168
374, 35.8281
375, 29.6661
376, 14.5374
377, -3.7643
378, -8.55235
379, -1.16576
380, 7.323
381, 14.9444
382, 20.0933
383, 22.1929
384, 18.6401
385, 7.67228
386, -0.491136
387, 8.53758
388, 28.0766
389, 39.277
390, 41.1942
391, 34.634
392, 20.3945
393, 7.40869
394, -1.51961
395, -4.96791
396, -2.34443
397, 0.421485
398, -3.88606
399, -11.2082
400, -11.7403
401, -4.81363
402, 11.5801
403, 38.0864
404, 62.2372
405, 81.2222
406, 95.9468
407, 106.842
408, 116.711
409, 128.108
410, 138.47
411, 143.223
412, 142.825
413, 139.086
414, 133.727
415, 136.9
416, 150.075
417, 167.992
418, 188.69
419, 199.039
420, 190.876
421, 176.981
422, 172.719
423, 176.72
424, 185.87
425, 199.292
426, 213.901
427, 226.856
428, 218.176
429, 184.968
430, 155.487
431, 140.711
432, 128.774
433, 111.339
434, 90.9465
435, 70.9755
436, 51.5783
437, 33.078
438, 20.1544
439, 17.224
440, 23.3624
441, 26.5761
442, 24.5771
443, 16.6187
444, 2.50648
445, -6.89
446, -5.3185
447, 4.91232
448, 21.7535
449, 41.0393
450, 54.7662
451, 62.3895
452, 62.9169
453, 57.7912
454, 57.5387
455, 63.5617
456, 67.2253
457, 65.6904
458, 59.9981
459, 50.733
460, 41.1643
461, 34.5091
462, 28.0737
463, 17.2097
464, 4.10266
465, -4.28936
466, -8.23393
467, -7.33422
468, -1.62399
469, 7.35257
470, 18.5326
471, 16.7988
472, -3.67068
473, -18.7125
474, -13.5841
475, 1.02891
476, 13.7417
477, 23.5684
478, 28.8442
479, 29.6772
480, 26.5323
481, 21.2193
482, 22.9358
483, 31.6211
484, 34.4328
485, 28.432
486, 17.9582
487, 4.88462
488, 2.1854
489, 17.5271
490, 36.8278
491, 45.3969
492, 44.68
493, 37.1906
494, 24.2939
495, 9.6063
496, -4.45807
497, -8.72787
498, -4.10389
499, -1.72232
500, -3.07899
501, -0.149838
502, 9.7982
503, 21.7552
504, 33.9349
505, 44.348
506, 53.1425
507, 63.1525
508, 77.959
509, 96.537
510, 116.847
511, 135.96
512, 145.251
513, 145.848
514, 145.696
515, 146.452
516, 153.079
517, 166.143
518, 179.396
519, 190.705
520, 195.289
521, 190.912
522, 183.681
523, 177.981
524, 173.972
525, 171.831
526, 167.274
527, 152.985
528, 134.001
529, 123.343
530, 119.291
531, 113.078
532, 103.95
533, 92.3377
534, 77.8951
535, 56.8893
536, 30.0279
537, 26.3498
538, 53.797
539, 79.5686
540, 88.4131
541, 86.3165
542, 77.6998
543, 60.405
544, 32.0401
545, 7.66381
546, 12.5312
547, 35.8533
548, 49.4188
549, 55.7797
550, 66.9134
551, 81.7112
552, 90.505
553, 92.4583
554, 90.4131
555, 84.7178
556, 73.1543
557, 55.4824
558, 39.0488
559, 26.6597
560, 16.5648
561, 7.82517
562, 1.71905
563, -1.99385
564, -5.34402
565, -10.4564
566, -13.5195
567, -8.26544
568, 2.5376
569, 12.9442
570, 20.9168
571, 22.0214
572, 17.8372
573, 15.5073
574, 15.1524
575, 13.6219
576, 10.9363
577, 10.7965
578, 13.1192
579, 8.16872
580, -5.63515
581, -6.86898
582, 12.0277
583, 28.9417
584, 32.4965
585, 28.9497
586, 22.4752
587, 17.4485
588, 17.7966
589, 21.2168
590, 24.8957
591, 24.3913
592, 12.515
593, -2.908
594, -5.42039
595, 2.68096
596, 15.1424
597, 29.665
598, 40.4915
599, 46.7739
600, 46.9312
601, 42.6881
602, 45.7397
603, 56.2061
604, 58.814
605, 50.9058
606, 40.8978
607, 31.0562
608, 19.1382
609, 4.5352
610, -6.6877
611, -13.0864
612, -13.9686
613, -8.67776
614, 0.539953
615, 12.6179
616, 26.0618
617, 39.5612
618, 47.5359
619, 43.4964
620, 36.4866
621, 39.7094
622, 47.5902
623, 49.8796
624, 48.4285
625, 47.7805
626, 45.6759
627, 35.6055
628, 22.2251
629, 21.9008
630, 32.6715
631, 41.7253
632, 45.7477
633, 35.0884
634, 12.2764
635, -0.0595621
636, 0.436538
637, 3.66856
638, 8.3434
639, 18.953
640, 34.2517
641, 37.6855
642, 26.2665
643, 28.5305
644, 52.8308
645, 68.1714
646, 62.5345
647, 50.9915
648, 40.5558
649, 26.4926
650, 6.37518
651, -4.60539
652, 2.72417
653, 9.99041
654, 2.67258
655, -5.18342
656, -2.36803
657, 3.00843
658, 2.63089
659, 1.76209
660, 6.23878
661, 10.644
662, 7.82279
663, 5.99512
664, 18.5944
665, 36.6018
666, 44.9541
667, 46.2595
668, 46.2343
669, 41.7367
670, 25.469
671, 5.01247
672, -0.277687
673, 4.2599
674, 1.65418
675, -4.62499
676, -2.25794
677, 5.52622
678, 4.40909
679, -2.6742
680, -0.917282
681, 6.9595
682, 3.75044
683, -7.11047
684, -5.20549
685, 10.0722
686, 29.0112
687, 48.991
688, 63.3261
689, 69.9597
690, 62.6908
691, 44.2346
692, 37.3545
693, 42.9012
694, 40.6025
695, 28.2053
696, 16.3465
697, 7.17026
698, 1.74764
699, 0.804485
700, 14.1061
701, 40.7729
702, 54.4758
703, 50.6232
704, 43.9418
705, 37.7377
706, 28.957
707, 17.4195
708, 9.41555
709, 6.0253
710, 1.35039
711, -5.46139
712, 0.96874
713, 23.957
714, 41.0184
715, 46.2958
716, 47.7144
717, 47.2891
718, 40.7882
719, 28.0218
720, 22.9481
721, 28.9511
722, 34.5627
723, 36.3327
724, 35.3512
725, 32.0852
726, 28.2325
727, 23.8471
728, 12.7623
729, -5.47155
730, -12.6574
731, -4.92649
732, 4.0316
733, 10.9292
734, 17.7691
735, 24.3986
736, 20.3927
737, 4.67535
738, 0.483543
739, 12.636
740, 27.15
741, 39.1432
742, 37.8351
743, 22.1048
744, 9.77745
745, 5.52024
746, 10.4057
747, 23.5346
748, 40.6571
749, 57.6998
750, 48.9124
751, 14.4478
752, 1.11701
753, 15.4459
754, 31.1615
755, 42.986
756, 50.752
757, 53.1673
758, 42.2888
759, 20.8347
760, 12.7179
761, 18.0158
762, 16.3947
763, 6.70554
764, -1.15858
765, -5.08135
766, 2.04334
767, 20.1713
768, 42.1454
769, 62.8232
770, 65.6276
771, 54.8094
772, 50.5154
773, 52.6051
774, 55.3361
775, 54.9751
776, 42.1259
777, 21.0878
778, 4.30685
779, -5.89826
780, -7.64679
781, 0.675982
782, 23.3652
783, 48.7813
784, 55.5104
785, 57.3903
786, 77.6654
787, 98.2736
788, 92.8986
789, 74.666
790, 60.2368
791, 50.5697
792, 46.6467
793, 47.8549
794, 53.5997
795, 55.613
796, 47.3532
797, 31.1062
798, 8.81163
799, 4.05057
800, 28.6533
801, 45.6494
802, 37.6508
803, 30.3421
804, 34.2086
805, 38.295
806, 38.9237
807, 41.0225
808, 44.5048
809, 32.4257
810, 4.90397
811, 0.205907
812, 21.778
813, 40.3551
814, 50.3491
815, 50.415
816, 40.1781
817, 18.8687
818, -5.58342
819, -4.80031
820, 12.4147
821, 12.3291
822, 1.02544
823, -0.888381
824, 4.26661
825, 10.8199
826, 19.1774
827, 30.9986
828, 36.0674
829, 20.7941
830, 2.18141
831, -1.59822
832, 3.40678
833, 12.9458
834, 20.1213
835, 20.7477
836, 19.3295
837, 18.6217
838, 27.8077
839, 49.5213
840, 65.9251
841, 71.5885
842, 71.6826
843, 67.8516
844, 62.2357
845, 55.4662
846, 48.6317
847, 39.9346
848, 20.9997
849, -2.4888
850, -8.94105
851, -1.86322
852, 7.78386
853, 16.7878
854, 17.2452
855, 15.392
856, 21.0058
857, 33.534
858, 52.2032
859, 63.9308
860, 57.7217
861, 37.2446
862, 5.6274
863, -10.8098
864, -2.40793
865, 14.4787
866, 33.035
867, 44.3506
868, 47.0389
869, 48.6365
870, 50.2521
871, 49.8268
872, 48.5854
873, 52.2392
874, 56.911
875, 50.3093
876, 38.2671
877, 34.2504
878, 34.2106
879, 31.4486
880, 32.0879
881, 42.7126
882, 50.2493
883, 45.1376
884, 40.925
885, 44.3745
886, 43.696
887, 34.5042
888, 19.6445
889, 2.37159
890, 0.701036
891, 15.633
892, 35.44
893, 53.6065
894, 53.1351
895, 39.4195
896, 29.0827
897, 24.1854
898, 26.9868
899, 30.653
900, 26.9825
901, 16.5754
902, 0.253628
903, -6.10014
904, 4.38742
905, 9.00025
906, -0.0504017
907, -4.08079
908, 0.838027
909, 11.133
910, 25.5718
911, 42.3645
912, 55.3015
913, 47.1217
914, 27.9432
915, 19.778
916, 19.1011
917, 20.4663
918, 19.2862
919, 11.8067
920, 5.74658
921, 6.08809
922, 13.6174
923, 26.2035
924, 26.1332
925, 12.0448
926, 2.29834
927, 2.34521
928, 20.5826
929, 47.9912
930, 60.8167
931, 56.7842
932, 33.9931
933, 9.35427
934, 0.446298
935, 4.63043
936, 19.6664
937, 23.4754
938, 9.07107
939, 0.524846
940, 3.69139
941, 13.7669
942, 27.7991
943, 39.2897
944, 45.3374
945, 40.4068
946, 34.5389
947, 43.7915
948, 55.9543
949, 59.2092
950, 52.7807
951, 36.7092
952, 19.8857
953, 6.45728
954, 4.45323
955, 11.6143
956, 8.92143
957, -1.00833
958, -2.78017
959, 3.85652
960, 18.3852
961, 39.0771
962, 64.2398
963, 73.8524
964, 55.7146
965, 37.1942
966, 29.0275
967, 26.144
968, 26.4348
969, 25.5296
970, 20.1717
971, 2.22067
972, -16.7223
973, -16.0699
974, -4.74972
975, 7.8109
976, 18.7812
977, 26.0987
978, 30.324
979, 31.9472
980, 33.2776
981, 32.9242
982, 22.2933
983, 8.27463
984, 12.5993
985, 28.5666
986, 45.3237
987, 54.3841
988, 48.6133
989, 31.417
990, 6.52942
991, -1.22567
992, 11.2193
993, 25.8
994, 38.0338
995, 42.8769
996, 40.813
997, 33.4533
998, 25.7527
999, 22.7034
1000, 19.8337
1001, 15.0471
1002, 14.4422
1003, 18.5448
1004, 18.1241
1005, 13.5494
1006, 11.7086
1007, 9.7862
1008, 1.2088
1009, 0.880516
1010, 23.8109
1011, 33.5976
1012, 12.7988
1013, 1.64384
1014, 9.15634
1015, 12.4571
1016, 12.974
1017, 27.3524
1018, 39.9535
1019, 21.1144
1020, -3.03527
1021, -8.59367
1022, -5.68344
1023, 1.06879
1024, 9.66975
1025, 18.3134
1026, 22.1855
1027, 21.4447
1028, 18.1538
1029, 15.0798
1030, 15.9081
1031, 21.5466
1032, 32.0724
1033, 37.8361
1034, 35.6744
1035, 28.4167
1036, 17.9561
1037, 8.95748
1038, 2.1199
1039, -1.78831
1040, -2.36639
1041, 1.05839
1042, 9.3333
1043, 21.2309
1044, 24.2569
1045, 16.0863
1046, -0.297145
1047, -16.6704
1048, -17.4217
1049, -7.34561
1050, 8.51639
1051, 20.6731
1052, 24.1088
1053, 23.9666
1054, 21.5324
1055, 16.2039
1056, 8.97148
1057, 2.36347
1058, -1.87096
1059, -2.48725
1060, 1.17898
1061, 8.71441
1062, 7.34152
1063, -1.23903
1064, 9.04837
1065, 35.6443
1066, 64.5796
1067, 87.0605
1068, 98.0903
1069, 105.288
1070, 114.89
1071, 149.189
1072, 205.416
1073, 246.111
1074, 271.743
1075, 292.447
1076, 310.595
1077, 328.05
1078, 340.064
1079, 343.908
1080, 335.203
1081, 315.94
1082, 296.748
1083, 279.042
1084, 263.562
1085, 236.851
1086, 189.834
1087, 146.276
1088, 113.283
1089, 81.3265
1090, 52.405
1091, 36.2792
1092, 25.1901
1093, 3.22989
1094, -13.344
1095, -16.3365
1096, -10.9115
1097, -0.597281
1098, 4.16614
1099, 4.06308
1100, 1.3928
1101, -1.41516
1102, -2.95497
1103, -5.98979
1104, -10.5619
1105, -9.81216
1106, -1.8415
1107, 15.7688
1108, 30.8604
1109, 29.2545
1110, 21.3213
1111, 12.773
1112, 7.945
1113, 7.55601
1114, 10.7501
1115, 9.89378
1116, -6.17394
1117, -12.8349
1118, 3.34109
1119, 22.1475
1120, 37.4266
1121, 50.5352
1122, 55.33
1123, 40.317
1124, 21.2012
1125, 9.93065
1126, 4.3509
1127, 2.73526
1128, -2.14381
1129, -7.07147
1130, -2.83665
1131, 10.0367
1132, 31.1891
1133, 49.6456
1134, 59.9341
1135, 52.236
1136, 35.7292
1137, 34.2016
1138, 37.9571
1139, 37.7112
1140, 40.207
1141, 46.1911
1142, 45.7178
1143, 44.6514
1144, 59.649
1145, 68.133
1146, 50.7561
1147, 37.8389
1148, 38.1238
1149, 38.2841
1150, 36.4233
1151, 32.6342
1152, 21.1718
1153, -1.20004
1154, -9.49462
1155, 1.33884
1156, 19.4461
1157, 34.0044
1158, 27.7567
1159, 20.1302
1160, 25.1063
1161, 34.6097
1162, 43.972
1163, 44.074
1164, 35.9757
1165, 23.1313
1166, 16.9033
1167, 22.6442
1168, 26.1412
1169, 22.2526
1170, 5.51228
1171, -9.24962
1172, -4.92274
1173, 11.8985
1174, 34.9557
1175, 41.9037
1176, 32.7179
1177, 17.4908
1178, 5.36948
1179, 4.88535
1180, 15.1745
1181, 31.4558
1182, 35.2031
1183, 33.5508
1184, 43.041
1185, 41.6283
1186, 18.3185
1187, 3.86482
1188, 3.81846
1189, 10.7626
1190, 24.6309
1191, 45.2022
1192, 43.0223
1193, 12.99
1194, -3.82128
1195, -5.59755
1196, -0.893968
1197, 3.64877
1198, 3.6663
1199, 0.186701
1200, -0.583432
1201, 22.1363
1202, 51.974
1203, 66.8008
1204, 66.0819
1205, 52.3196
1206, 40.1548
1207, 38.3429
1208, 59.3346
1209, 72.3027
1210, 59.9179
1211, 52.9652
1212, 52.9635
1213, 42.5667
1214, 31.1723
1215, 28.6633
1216, 17.9001
1217, 0.888829
1218, 13.2376
1219, 33.4052
1220, 22.4761
1221, 4.88839
1222, -5.60235
1223, -7.09719
1224, -0.553739
1225, 11.6991
1226, 15.7287
1227, 3.08067
1228, -11.4591
1229, -19.4344
1230, -4.31222
1231, 12.2738
1232, 7.79042
1233, 0.369526
1234, -2.43981
1235, 4.62375
1236, 18.5665
1237, 32.7093
1238, 33.4165
1239, 19.1845
1240, 11.8074
1241, 15.9293
1242, 32.3965
1243, 44.7062
1244, 46.935
1245, 52.0341
1246, 64.0301
1247, 86.3072
1248, 101.771
1249, 100.653
1250, 93.2198
1251, 83.6931
1252, 77.0043
1253, 82.2039
1254, 102.346
1255, 103.11
1256, 86.0752
1257, 78.9212
1258, 79.5761
1259, 83.8535
1260, 80.1387
1261, 65.8241
1262, 42.7711
1263, 23.6889
1264, 22.3724
1265, 32.6845
1266, 44.703
1267, 39.4655
1268, 32.5113
1269, 39.7067
1270, 44.7337
1271, 40.874
1272, 22.7547
1273, 3.97123
1274, -0.275206
1275, 14.2325
1276, 38.3953
1277, 37.0096
1278, 25.426
1279, 22.2986
1280, 30.1313
1281, 44.0929
1282, 46.184
1283, 33.4378
1284, 6.64719
1285, -5.44952
1286, 3.84287
1287, 34.584
1288, 56.8089
1289, 47.2077
1290, 35.2251
1291, 27.307
1292, 19.648
1293, 18.1764
1294, 24.563
1295, 10.9452
1296, -9.54013
1297, 8.91017
1298, 38.1547
1299, 55.781
1300, 51.6437
1301, 30.6978
1302, 7.48575
1303, 1.63621
1304, 19.1543
1305, 30.838
1306, 28.0971
1307, 5.4759
1308, -6.74455
1309, 1.04788
1310, 13.0328
1311, 20.3297
1312, 14.7857
1313, 8.27591
1314, 4.75195
1315, 2.95833
1316, 0.893908
1317, -2.85412
1318, -4.7753
1319, -2.89066
1320, 5.87046
1321, 17.3766
1322, 26.9728
1323, 24.4927
1324, 15.4457
1325, 14.1874
1326, 14.2739
1327, 11.0885
1328, -0.987424
1329, -7.67496
1330, 9.27589
1331, 25.325
1332, 31.8279
1333, 30.2124
1334, 19.4003
1335, 1.35035
1336, 3.51723
1337, 20.5889
1338, 25.3725
1339, 19.2328
1340, 7.68128
1341, 13.1505
1342, 26.395
1343, 29.3265
1344, 21.491
1345, 6.37111
1346, -4.07086
1347, -1.47979
1348, 18.3197
1349, 32.1939
1350, 31.6589
1351, 10.9045
1352, 0.00198899
1353, 10.0156
1354, 20.8844
1355, 24.1157
1356, 13.1735
1357, -4.13275
1358, -15.2954
1359, 6.09754
1360, 28.3115
1361, 29.9089
1362, 17.844
1363, 6.36259
1364, 13.632
1365, 17.1559
1366, 11.131
1367, 3.14759
1368, -0.584413
1369, 4.85286
1370, 27.9134
1371, 46.821
1372, 24.6152
1373, 6.33376
1374, 5.10078
1375, 3.5682
1376, 1.33618
1377, -0.610073
1378, -2.36726
1379, 2.56966
1380, 25.1903
1381, 44.8555
1382, 48.3119
1383, 19.0352
1384, -1.43592
1385, 15.8101
1386, 36.8352
1387, 52.048
1388, 55.8852
1389, 37.6509
1390, 11.5219
1391, 33.5251
1392, 59.0586
1393, 58.3313
1394, 50.9667
1395, 37.6256
1396, 16.5107
1397, 10.9048
1398, 17.9864
1399, 8.71739
1400, 8.84142
1401, 28.4404
1402, 44.3109
1403, 50.5605
1404, 45.8384
1405, 48.0065
1406, 59.07
1407, 73.7604
1408, 72.2805
1409, 51.9128
1410, 31.4958
1411, 25.3528
1412, 35.981
1413, 22.251
1414, -3.75529
1415, -16.848
1416, -11.2398
1417, 10.6156
1418, 37.4709
1419, 34.653
1420, 1.3478
1421, -4.43514
1422, 8.12492
1423, 26.6948
1424, 41.3362
1425, 41.9061
1426, 19.3339
1427, 2.08967
1428, -1.32915
1429, 8.02549
1430, 10.4697
1431, 3.04585
1432, 7.17564
1433, 19.5854
1434, 33.9177
1435, 34.086
1436, 19.5904
1437, -3.44949
1438, 0.389472
1439, 26.8965
1440, 50.4516
1441, 43.2414
1442, 12.3473
1443, 3.79189
1444, 7.15174
1445, 11.6939
1446, 5.35581
1447, -1.94025
1448, 0.38674
1449, 28.4546
1450, 55.7057
1451, 48.9169
1452, 34.1425
1453, 24.0331
1454, 29.308
1455, 46.4318
1456, 57.6935
1457, 23.8657
1458, 0.955248
1459, 7.35307
1460, 8.53563
1461, 19.3518
1462, 42.8356
1463, 39.8989
1464, 35.5895
1465, 51.5557
1466, 41.4402
1467, 22.7035
1468, 28.2548
1469, 45.7909
1470, 65.8699
1471, 76.395
1472, 60.3282
1473, 25.3955
1474, 2.30791
1475, 4.44554
1476, 27.2198
1477, 41.3112
1478, 43.7137
1479, 35.4681
1480, 22.8045
1481, 11.839
1482, 6.06644
1483, 4.58726
1484, 5.22855
1485, 7.65658
1486, 18.31
1487, 31.2536
1488, 39.2043
1489, 45.1185
1490, 52.9013
1491, 63.99
1492, 50.7499
1493, 19.1253
1494, -9.44933
1495, -21.7119
1496, -12.2839
1497, 20.9552
1498, 23.2328
1499, 0.275953
1500, 4.6886
1501, 26.6372
1502, 53.1584
1503, 64.5787
1504, 48.5057
1505, 16.5158
1506, 13.7488
1507, 24.2362
1508, 33.3273
1509, 24.3777
1510, 16.8899
1511, 18.9762
1512, 20.7772
1513, 16.5045
1514, 6.7273
1515, 4.59546
1516, 11.7227
1517, 25.3921
1518, 35.2422
1519, 35.0883
1520, 26.686
1521, 30.5365
1522, 31.5669
1523, 20.3724
1524, 6.80268
1525, -2.53734
1526, -2.62426
1527, 12.2861
1528, 18.4665
1529, 3.60711
1530, -10.1144
1531, -12.3599
1532, 0.777271
1533, 21.4875
1534, 33.9589
1535, 32.1751
1536, 33.5604
1537, 35.7497
1538, 33.4505
1539, 17.4021
1540, 14.4505
1541, 34.8122
1542, 49.2073
1543, 44.755
1544, 19.7131
1545, -9.74693
1546, -7.14221
1547, 29.0051
1548, 37.4609
1549, 37.1684
1550, 38.9263
1551, 38.4639
1552, 45.6309
1553, 50.2481
1554, 14.9961
1555, -1.23138
1556, 10.4658
1557, 10.9408
1558, 4.71432
1559, -5.85418
1560, -20.2834
1561, -5.98845
1562, 25.8136
1563, 33.7493
1564, 22.7941
1565, 8.54775
1566, 12.4664
1567, 29.1187
1568, 54.4669
1569, 77.962
1570, 84.4107
1571, 97.8297
1572, 137.428
1573, 157.124
1574, 171.466
1575, 197.012
1576, 229.094
1577, 262.707
1578, 288.494
1579, 284.714
1580, 273.651
1581, 267.743
1582, 265.416
1583, 233.93
1584, 175.842
1585, 125.481
1586, 92.2511
1587, 71.3156
1588, 50.1587
1589, 25.5018
1590, 14.6158
1591, 30.091
1592, 38.046
1593, 28.1627
1594, 2.85958
1595, -8.29507
1596, -1.65954
1597, 16.0728
1598, 18.6735
1599, 5.07787
1600, -8.73195
1601, 8.27132
1602, 17.2028
1603, 10.0986
1604, -1.95301
1605, -5.4685
1606, 5.34425
1607, 27.8327
1608, 24.8048
1609, 12.0821
1610, 6.76556
1611, 11.0066
1612, 18.5434
1613, 19.4183
1614, -0.709411
1615, -3.17242
1616, 11.54
1617, 19.8773
1618, 22.1705
1619, 14.1077
1620, -1.8919
1621, 11.6525
1622, 27.6338
1623, 26.1037
1624, 15.4116
1625, 6.12102
1626, 2.59381
1627, 3.83356
1628, -4.44564
1629, -5.15954
1630, 24.8841
1631, 57.602
1632, 65.22
1633, 39.8748
1634, 16.7929
1635, 3.17475
1636, 1.45023
1637, 9.50877
1638, -0.101958
1639, -4.4836
1640, 27.3968
1641, 48.3694
1642, 49.4766
1643, 34.7996
1644, 21.3978
1645, 24.9706
1646, 34.4281
1647, 19.3021
1648, 1.77343
1649, -6.04348
1650, 0.246856