File: Raman_Spectroscopy_GAN/input/clinical_sample/s9/s9_3_785M-T_Rlab.csv
a,b
320, 1.18577
321, -1.199
322, -3.7497
323, -4.26853
324, -2.82796
325, 0.681529
326, 6.13337
327, 11.6174
328, 16.6893
329, 18.8143
330, 17.4314
331, 16.2152
332, 17.1822
333, 17.4762
334, 13.4827
335, 7.99029
336, 8.71674
337, 14.1245
338, 11.926
339, 0.796524
340, -4.16387
341, 2.25497
342, 12.4037
343, 19.2307
344, 24.7276
345, 32.5817
346, 40.1799
347, 36.9796
348, 23.362
349, 12.8878
350, 10.258
351, 18.4422
352, 38.0752
353, 60.2428
354, 74.8522
355, 82.1222
356, 82.6003
357, 78.5443
358, 81.2415
359, 91.5989
360, 101.053
361, 106.922
362, 105.195
363, 93.3511
364, 76.0588
365, 59.7073
366, 45.162
367, 34.7335
368, 28.2097
369, 23.5424
370, 20.2576
371, 16.1625
372, 10.5493
373, 9.83099
374, 17.6267
375, 26.3501
376, 26.2915
377, 19.8174
378, 14.106
379, 9.46571
380, 4.96244
381, 0.516407
382, -2.60664
383, -4.31163
384, -5.85158
385, -8.11405
386, -9.29552
387, -6.64464
388, -0.653815
389, 7.12442
390, 15.5675
391, 18.8191
392, 16.0399
393, 7.94636
394, -5.03107
395, -10.2417
396, -0.367632
397, 14.5139
398, 21.0392
399, 20.0988
400, 13.8465
401, 3.94473
402, -2.1586
403, -3.72837
404, 3.89619
405, 22.3127
406, 41.3701
407, 53.1538
408, 62.9829
409, 75.6992
410, 90.9438
411, 108.076
412, 126.001
413, 141.144
414, 153.136
415, 161.436
416, 166.467
417, 176.204
418, 193.251
419, 209.792
420, 220.969
421, 227.745
422, 231.273
423, 231.452
424, 228.05
425, 222.19
426, 218.445
427, 216.513
428, 210.167
429, 198.16
430, 182.372
431, 163.567
432, 145.599
433, 131.172
434, 117.183
435, 99.5049
436, 78.7266
437, 56.2974
438, 33.4176
439, 14.8891
440, 3.08103
441, -0.492411
442, 4.13861
443, 12.2986
444, 22.7657
445, 29.7042
446, 29.9938
447, 29.817
448, 36.8844
449, 48.9539
450, 61.0777
451, 74.485
452, 94.4545
453, 118.025
454, 121.471
455, 101.418
456, 74.2225
457, 45.385
458, 19.2438
459, -1.76693
460, -11.0781
461, -2.99844
462, 12.3464
463, 16.3637
464, 12.9972
465, 14.5935
466, 19.5208
467, 15.9275
468, 3.91988
469, -0.569789
470, 5.0929
471, 7.0583
472, -0.125695
473, -3.49757
474, 5.21137
475, 14.014
476, 8.75241
477, -3.45695
478, -9.27726
479, -9.05804
480, -3.08434
481, 8.33984
482, 20.9341
483, 33.5943
484, 42.1234
485, 45.4619
486, 42.9834
487, 34.5538
488, 29.5741
489, 34.0213
490, 39.8371
491, 38.4818
492, 31.7505
493, 22.7609
494, 12.8308
495, 5.41799
496, 1.35937
497, 0.6733
498, 3.33559
499, 9.57767
500, 18.1195
501, 15.9757
502, -0.461518
503, -12.2051
504, -11.026
505, -0.865057
506, 16.1554
507, 35.8971
508, 49.3528
509, 57.067
510, 60.1597
511, 62.7185
512, 76.9242
513, 100.771
514, 121.139
515, 136.372
516, 146.436
517, 151.708
518, 157.439
519, 165.308
520, 175.779
521, 188.994
522, 192.83
523, 178.584
524, 156.817
525, 139.38
526, 122.605
527, 100.212
528, 77.4405
529, 67.7765
530, 66.3363
531, 52.4737
532, 28.1337
533, 18.1316
534, 23.077
535, 26.8284
536, 23.8604
537, 28.9338
538, 43.6785
539, 56.1003
540, 60.1581
541, 63.3602
542, 71.2517
543, 78.4676
544, 79.0611
545, 73.9403
546, 64.5878
547, 55.2797
548, 55.8832
549, 64.2864
550, 72.2311
551, 77.6657
552, 73.9585
553, 61.8766
554, 52.7648
555, 48.5047
556, 45.671
557, 43.4241
558, 43.9045
559, 47.5944
560, 39.0737
561, 10.1716
562, -13.718
563, -16.6801
564, -9.05816
565, -0.896668
566, 6.27197
567, 9.58614
568, 9.69796
569, 9.35377
570, 9.65402
571, 13.4752
572, 19.9401
573, 24.9839
574, 26.4227
575, 14.7476
576, -7.82382
577, -14.5025
578, -2.02792
579, 10.4446
580, 17.6117
581, 24.5541
582, 33.1938
583, 43.5522
584, 55.5726
585, 62.3974
586, 59.4575
587, 49.1481
588, 33.6189
589, 16.3169
590, 1.45398
591, -4.61059
592, 7.56554
593, 27.9862
594, 31.8875
595, 24.7928
596, 23.9326
597, 28.9983
598, 35.4228
599, 41.7408
600, 43.0465
601, 38.2655
602, 24.5844
603, 3.48408
604, -8.59258
605, -9.6155
606, -3.41871
607, 8.78635
608, 14.0466
609, 7.98284
610, 2.32945
611, 2.28541
612, 0.937988
613, -5.49751
614, -8.67351
615, -2.46738
616, 5.52004
617, 8.04831
618, 11.9854
619, 25.3184
620, 35.8828
621, 25.9215
622, 7.82584
623, 4.20164
624, 8.54017
625, 4.11759
626, -3.55593
627, 0.0178527
628, 13.2483
629, 27.0209
630, 41.1124
631, 57.4381
632, 73.2593
633, 74.3594
634, 61.331
635, 48.8826
636, 40.3406
637, 42.3225
638, 54.3788
639, 59.9304
640, 55.459
641, 47.1863
642, 37.0106
643, 26.3371
644, 15.8236
645, 9.21301
646, 8.88258
647, 13.077
648, 19.9538
649, 22.7509
650, 17.7782
651, 7.6718
652, -5.82955
653, -13.8335
654, -10.0882
655, -2.56048
656, 2.24134
657, 8.7907
658, 20.9307
659, 28.5249
660, 19.5639
661, 8.88447
662, 16.7326
663, 27.4969
664, 16.7435
665, 0.116216
666, 5.62737
667, 19.5779
668, 13.858
669, -1.64787
670, -3.54133
671, 3.50182
672, 7.0147
673, 9.89187
674, 22.6902
675, 38.9545
676, 37.3052
677, 21.6454
678, 9.90423
679, 3.26229
680, 1.09223
681, 2.89772
682, 8.09051
683, 14.8554
684, 16.8277
685, 14.7973
686, 16.183
687, 21.469
688, 28.0905
689, 35.0096
690, 38.4322
691, 37.3142
692, 28.9119
693, 15.2545
694, 12.9774
695, 22.0088
696, 19.8422
697, 4.59461
698, -3.57166
699, -2.45311
700, -1.12726
701, -0.445724
702, 8.97338
703, 27.2026
704, 34.0902
705, 26.7244
706, 25.2649
707, 33.8111
708, 41.2539
709, 44.5857
710, 43.2311
711, 37.3062
712, 29.9527
713, 22.5942
714, 21.5723
715, 28.0028
716, 32.9729
717, 33.9918
718, 32.9836
719, 30.3612
720, 23.9722
721, 13.8097
722, 8.35045
723, 10.6079
724, 14.0454
725, 16.7497
726, 16.763
727, 13.645
728, 9.5618
729, 5.20639
730, 0.895137
731, -2.69246
732, 0.327822
733, 10.8611
734, 12.9513
735, 3.39856
736, 0.724911
737, 8.83533
738, 9.40655
739, -1.08194
740, -4.0527
741, 3.72702
742, 5.19914
743, -2.55309
744, -1.97345
745, 9.80536
746, 15.8664
747, 13.1424
748, 12.2242
749, 15.2453
750, 19.0246
751, 22.1923
752, 19.6245
753, 10.9432
754, 1.38138
755, -6.50762
756, -4.24266
757, 7.99851
758, 17.0964
759, 20.8024
760, 19.8169
761, 14.6762
762, 7.65151
763, 1.27346
764, 6.49367
765, 21.7731
766, 30.5071
767, 31.6937
768, 29.2524
769, 24.5551
770, 21.1708
771, 19.5419
772, 20.006
773, 24.0437
774, 36.1973
775, 52.7736
776, 62.3873
777, 63.5208
778, 54.064
779, 37.3812
780, 21.445
781, 10.9668
782, 16.09
783, 30.9732
784, 46.4168
785, 54.3829
786, 42.1263
787, 20.4493
788, 5.06733
789, -1.84275
790, 0.959389
791, 14.4683
792, 39.3451
793, 59.2651
794, 59.1729
795, 55.564
796, 61.3856
797, 60.3726
798, 41.7686
799, 25.5199
800, 22.8672
801, 17.1266
802, 0.809616
803, -3.20876
804, 13.051
805, 23.758
806, 20.5081
807, 20.1023
808, 27.245
809, 36.0463
810, 44.1475
811, 44.9899
812, 37.0536
813, 19.8842
814, -2.36147
815, -7.22467
816, 5.17625
817, 22.9984
818, 39.7411
819, 39.3609
820, 25.1775
821, 11.384
822, 2.68355
823, 8.57243
824, 19.7488
825, 17.1503
826, 6.01325
827, -4.15584
828, -7.00904
829, 5.95954
830, 23.3264
831, 31.0665
832, 35.6091
833, 42.1822
834, 42.995
835, 33.2525
836, 25.6524
837, 26.4604
838, 26.9891
839, 24.3268
840, 29.1278
841, 43.1453
842, 48.0154
843, 40.3367
844, 30.6597
845, 23.0951
846, 28.5748
847, 45.0284
848, 56.4331
849, 59.9983
850, 52.508
851, 36.2272
852, 17.5937
853, 2.64344
854, 2.96385
855, 9.59763
856, 8.10981
857, 1.90817
858, -4.72526
859, -2.20421
860, 18.2247
861, 44.6581
862, 68.7675
863, 69.3773
864, 38.3616
865, 10.1947
866, -2.46799
867, 1.98485
868, 21.6975
869, 36.0047
870, 39.6819
871, 26.8847
872, 4.57075
873, 2.50551
874, 16.945
875, 30.009
876, 36.2782
877, 26.7427
878, 12.7012
879, 11.5591
880, 20.8264
881, 37.5829
882, 49.3503
883, 46.7291
884, 30.0259
885, 0.819856
886, -12.2094
887, -1.25345
888, 10.6536
889, 17.3452
890, 22.7553
891, 26.1004
892, 19.6845
893, 8.18372
894, 11.2146
895, 21.0347
896, 14.761
897, 1.19444
898, -2.58214
899, 0.434747
900, 7.06438
901, 14.9418
902, 22.1117
903, 23.6099
904, 17.3713
905, 16.3975
906, 24.7488
907, 32.6267
908, 36.7339
909, 32.6206
910, 21.3603
911, 10.8426
912, 4.9798
913, 12.9687
914, 27.4264
915, 33.751
916, 30.3733
917, 15.7478
918, 1.80773
919, -1.13921
920, 2.11136
921, 9.16361
922, 17.3572
923, 24.5482
924, 31.2775
925, 37.7513
926, 44.3745
927, 50.907
928, 56.201
929, 60.9947
930, 67.3892
931, 77.3521
932, 93.9382
933, 101.824
934, 85.1773
935, 57.2233
936, 27.0147
937, 4.51345
938, -5.32518
939, -0.498485
940, 15.9209
941, 16.8491
942, 3.16728
943, -3.63789
944, -2.86436
945, 3.8899
946, 18.3036
947, 41.6649
948, 53.7768
949, 35.8465
950, 14.8279
951, 6.21819
952, 5.60524
953, 11.2782
954, 24.5398
955, 42.1085
956, 45.6689
957, 37.8787
958, 34.2522
959, 32.4189
960, 25.9139
961, 16.1488
962, 5.00052
963, 2.42256
964, 13.9533
965, 27.2323
966, 36.9339
967, 39.7826
968, 34.5735
969, 19.307
970, -0.267716
971, -5.4637
972, -2.16728
973, -2.65033
974, -0.310654
975, 12.6357
976, 24.9429
977, 29.5986
978, 29.1417
979, 24.3502
980, 13.6886
981, -0.69676
982, -7.66001
983, -6.9559
984, 0.39798
985, 11.9628
986, 22.8438
987, 28.9588
988, 27.0021
989, 23.1435
990, 20.4571
991, 19.1387
992, 19.7972
993, 25.6238
994, 32.4373
995, 25.1249
996, 10.1299
997, 1.57242
998, 0.11319
999, 5.86143
1000, 22.8109
1001, 50.662
1002, 66.2292
1003, 62.4083
1004, 41.6689
1005, 11.7569
1006, -2.23149
1007, -1.01855
1008, 10.4776
1009, 23.5227
1010, 28.9262
1011, 25.7565
1012, 14.5243
1013, 9.12059
1014, 12.233
1015, 13.7837
1016, 11.6733
1017, 4.57792
1018, -1.65636
1019, 1.9915
1020, 13.1006
1021, 28.417
1022, 36.826
1023, 33.2131
1024, 20.7905
1025, 3.29173
1026, -5.26812
1027, -5.80495
1028, -4.18269
1029, 1.91784
1030, 16.3818
1031, 24.6724
1032, 17.8077
1033, 13.7446
1034, 16.6351
1035, 9.13457
1036, -4.52272
1037, 1.35802
1038, 16.6365
1039, 17.5219
1040, 16.0711
1041, 23.5428
1042, 33.1264
1043, 41.0368
1044, 41.6798
1045, 34.5251
1046, 23.0724
1047, 8.62372
1048, -6.83846
1049, -14.9535
1050, -6.94077
1051, 7.27315
1052, 21.4667
1053, 22.9789
1054, 11.494
1055, 1.96437
1056, -3.42505
1057, -5.0605
1058, 1.33422
1059, 21.1332
1060, 28.8858
1061, 13.1469
1062, 6.7343
1063, 15.9283
1064, 32.2371
1065, 48.2991
1066, 53.4929
1067, 56.3906
1068, 67.3013
1069, 88.1772
1070, 119.547
1071, 156.172
1072, 193.857
1073, 220.376
1074, 242.29
1075, 276.415
1076, 302.694
1077, 301.213
1078, 284.632
1079, 260.542
1080, 243.191
1081, 235.805
1082, 238.606
1083, 239.697
1084, 218.543
1085, 182.968
1086, 139.891
1087, 99.5983
1088, 66.0871
1089, 40.7536
1090, 23.5891
1091, 16.3011
1092, 15.7945
1093, 18.8644
1094, 14.2576
1095, -1.43313
1096, -7.91935
1097, -3.63943
1098, -0.916295
1099, 0.484487
1100, 3.19153
1101, 2.06345
1102, -6.20577
1103, -9.24559
1104, -2.99234
1105, 9.86893
1106, 24.7137
1107, 30.1491
1108, 32.1502
1109, 38.0291
1110, 35.95
1111, 22.0967
1112, 13.9968
1113, 10.5867
1114, -5.02748
1115, -20.117
1116, -14.234
1117, -2.20199
1118, 7.06804
1119, 11.163
1120, 9.50382
1121, 2.76906
1122, -0.734607
1123, 13.182
1124, 27.2326
1125, 28.5531
1126, 24.9862
1127, 20.8435
1128, 24.5044
1129, 32.9406
1130, 37.4811
1131, 32.3834
1132, 14.1143
1133, 2.91761
1134, 5.50292
1135, 16.9677
1136, 33.4362
1137, 49.1719
1138, 58.1018
1139, 55.1396
1140, 45.0508
1141, 30.5266
1142, 16.4271
1143, 5.81287
1144, 4.51085
1145, 15.2614
1146, 38.8088
1147, 53.0316
1148, 50.4939
1149, 35.3324
1150, 14.2197
1151, 0.212053
1152, -2.06127
1153, 9.62174
1154, 18.8909
1155, 19.3466
1156, 7.60915
1157, -5.35665
1158, 1.7926
1159, 12.0441
1160, 12.2443
1161, 8.52954
1162, 2.55036
1163, -6.16761
1164, -9.18065
1165, 8.08197
1166, 19.1058
1167, 9.54156
1168, 2.38704
1169, 3.70133
1170, 14.3517
1171, 28.8588
1172, 40.181
1173, 34.8166
1174, 10.5007
1175, -5.1296
1176, -6.4831
1177, 8.8434
1178, 25.2584
1179, 26.5073
1180, 22.796
1181, 20.1612
1182, 29.8402
1183, 42.0326
1184, 36.9856
1185, 28.5079
1186, 25.679
1187, 28.603
1188, 37.8814
1189, 55.3195
1190, 63.3013
1191, 42.2921
1192, 26.1166
1193, 26.4133
1194, 27.8935
1195, 26.7719
1196, 20.1235
1197, 9.31917
1198, -2.45816
1199, -3.7171
1200, 6.2329
1201, 19.8747
1202, 29.7207
1203, 28.9152
1204, 34.4639
1205, 51.3464
1206, 67.1016
1207, 75.5292
1208, 68.326
1209, 57.8242
1210, 52.3385
1211, 51.6858
1212, 54.0711
1213, 54.3549
1214, 44.2238
1215, 17.2459
1216, 4.55585
1217, 12.2952
1218, 16.0036
1219, 15.6062
1220, 15.2044
1221, 11.3253
1222, 2.81002
1223, -5.86675
1224, -12.7905
1225, -14.248
1226, -12.7373
1227, -9.44925
1228, 0.338269
1229, 14.0911
1230, 18.163
1231, 19.9165
1232, 27.1557
1233, 33.8709
1234, 38.3316
1235, 41.6463
1236, 38.4941
1237, 22.3672
1238, 10.8551
1239, 12.6057
1240, 27.6934
1241, 46.5733
1242, 55.1486
1243, 46.5009
1244, 22.5356
1245, 18.0171
1246, 33.3562
1247, 51.2828
1248, 67.8843
1249, 79.8911
1250, 79.0674
1251, 71.0442
1252, 73.5687
1253, 73.2503
1254, 62.1111
1255, 65.9991
1256, 83.6326
1257, 93.914
1258, 94.8691
1259, 85.9397
1260, 68.2349
1261, 50.1754
1262, 56.2606
1263, 64.0214
1264, 51.5816
1265, 30.9671
1266, 10.1496
1267, 4.22554
1268, 14.7483
1269, 41.259
1270, 47.652
1271, 32.2245
1272, 25.3403
1273, 29.2246
1274, 42.6564
1275, 51.8555
1276, 50.1773
1277, 30.006
1278, 13.7709
1279, 23.9427
1280, 28.6772
1281, 21.7755
1282, 13.5336
1283, 9.8259
1284, 16.6355
1285, 33.9061
1286, 50.6454
1287, 33.0326
1288, 3.85906
1289, -13.4828
1290, -12.1514
1291, 7.51954
1292, 39.902
1293, 58.3186
1294, 46.714
1295, 40.0049
1296, 40.2673
1297, 32.9933
1298, 33.6183
1299, 48.7642
1300, 47.8128
1301, 34.7294
1302, 29.6908
1303, 19.1576
1304, -1.3559
1305, -11.7269
1306, -7.16938
1307, 16.1368
1308, 32.1521
1309, 32.1773
1310, 32.6493
1311, 25.4331
1312, 0.02499
1313, 5.24453
1314, 37.5851
1315, 22.7966
1316, -2.14068
1317, 2.019
1318, 1.45342
1319, -2.00872
1320, 20.8173
1321, 31.4886
1322, 8.15443
1323, -0.434231
1324, 8.10819
1325, 19.5992
1326, 26.3487
1327, 26.3731
1328, 28.2513
1329, 27.1047
1330, 15.5583
1331, 6.44556
1332, 3.01333
1333, 1.08249
1334, 1.87017
1335, 6.07859
1336, 5.01851
1337, 0.365983
1338, 0.55083
1339, 12.7355
1340, 37.5042
1341, 57.245
1342, 62.9402
1343, 46.2351
1344, 21.6594
1345, -1.23835
1346, -8.6839
1347, -3.1458
1348, 12.5015
1349, 29.9929
1350, 41.7168
1351, 36.4215
1352, 27.1206
1353, 19.89
1354, 11.3649
1355, 10.1887
1356, 24.8916
1357, 26.7625
1358, 12.9854
1359, -0.924097
1360, -1.33702
1361, 17.4773
1362, 40.2021
1363, 55.2632
1364, 49.5197
1365, 28.0118
1366, 1.31253
1367, -3.28983
1368, 3.02482
1369, 9.49324
1370, 3.88117
1371, -2.48545
1372, 10.9807
1373, 26.037
1374, 34.1463
1375, 31.8775
1376, 16.8302
1377, -8.04052
1378, -9.31451
1379, 10.1206
1380, 33.941
1381, 46.7036
1382, 47.9033
1383, 56.3416
1384, 62.5779
1385, 58.5564
1386, 48.6672
1387, 32.4672
1388, 9.34511
1389, 6.70139
1390, 25.2313
1391, 37.162
1392, 43.4955
1393, 47.9855
1394, 60.8915
1395, 75.0647
1396, 78.1091
1397, 67.1252
1398, 47.6623
1399, 36.1563
1400, 41.463
1401, 60.9871
1402, 61.6931
1403, 49.7237
1404, 36.9027
1405, 31.7891
1406, 35.7074
1407, 46.4185
1408, 44.5446
1409, 29.2878
1410, 25.2531
1411, 21.9199
1412, 13.336
1413, 20.0561
1414, 30.8569
1415, 29.8623
1416, 33.7219
1417, 33.7937
1418, 1.41029
1419, -14.9354
1420, -3.46697
1421, -1.30264
1422, 1.42345
1423, 13.5281
1424, 22.0272
1425, 28.2466
1426, 36.1841
1427, 35.3994
1428, 26.4476
1429, 17.3224
1430, 11.3906
1431, 8.69007
1432, 4.48602
1433, 0.995045
1434, 0.566044
1435, 9.38022
1436, 25.1293
1437, 43.0738
1438, 53.8377
1439, 47.9002
1440, 14.6477
1441, -2.2777
1442, 5.77947
1443, 19.7755
1444, 36.5602
1445, 51.5321
1446, 49.5783
1447, 45.3322
1448, 48.3761
1449, 36.8206
1450, 24.752
1451, 33.0661
1452, 52.4317
1453, 72.6471
1454, 79.1095
1455, 61.8046
1456, 27.2673
1457, 0.687836
1458, -7.57012
1459, 2.83586
1460, 21.4251
1461, 33.3801
1462, 33.9663
1463, 44.6698
1464, 51.5327
1465, 42.0638
1466, 38.9644
1467, 33.5015
1468, 13.4446
1469, 26.4432
1470, 49.5612
1471, 28.9196
1472, 26.6557
1473, 45.8726
1474, 47.2557
1475, 63.0432
1476, 85.1238
1477, 49.3649
1478, 19.5297
1479, 23.9887
1480, 30.6748
1481, 33.5601
1482, 29.9556
1483, 17.188
1484, 8.50432
1485, 13.4742
1486, 13.4314
1487, 3.76164
1488, -12.6103
1489, -4.78262
1490, 15.8941
1491, 24.7173
1492, 19.4075
1493, 10.7521
1494, 15.9661
1495, 25.4598
1496, 30.3883
1497, 20.3344
1498, 7.34065
1499, 2.3921
1500, 19.0418
1501, 29.1261
1502, 23.3443
1503, 6.74496
1504, 3.41135
1505, 16.8671
1506, 26.6259
1507, 24.1784
1508, 9.23172
1509, -7.6513
1510, -2.24341
1511, 23.8376
1512, 21.0321
1513, 23.5891
1514, 43.7138
1515, 45.9047
1516, 52.2815
1517, 63.6352
1518, 23.5776
1519, -9.71923
1520, -5.21983
1521, -1.51859
1522, 12.805
1523, 37.7848
1524, 30.2356
1525, 18.3927
1526, 20.7067
1527, 17.3905
1528, 14.1952
1529, 16.2956
1530, 21.5851
1531, 27.7454
1532, 29.9238
1533, 14.0233
1534, -3.32604
1535, -9.2336
1536, -2.22875
1537, 5.82815
1538, 9.25955
1539, 16.0933
1540, 30.3954
1541, 48.4144
1542, 48.4143
1543, 34.4881
1544, 16.8059
1545, 17.7118
1546, 28.6066
1547, 36.2771
1548, 17.9023
1549, -0.667226
1550, -0.206315
1551, 32.3576
1552, 51.2265
1553, 40.9306
1554, 19.5881
1555, 1.75874
1556, -4.36904
1557, 4.18067
1558, -4.65604
1559, -22.8372
1560, -11.3476
1561, 2.99261
1562, 9.11505
1563, 2.75585
1564, 0.326779
1565, 2.03267
1566, 2.50966
1567, 7.16891
1568, 13.7661
1569, 22.1559
1570, 62.3324
1571, 95.2552
1572, 88.1766
1573, 99.9748
1574, 129.083
1575, 166.618
1576, 210.985
1577, 230.814
1578, 216.464
1579, 205.064
1580, 208.602
1581, 222.416
1582, 221.642
1583, 212.05
1584, 194.962
1585, 167.53
1586, 137.008
1587, 101.795
1588, 57.8801
1589, 26.5362
1590, 17.8771
1591, 30.7019
1592, 42.9795
1593, 44.2445
1594, 33.7749
1595, 35.4442
1596, 30.2814
1597, 8.02777
1598, -17.7498
1599, -20.7655
1600, 0.602305
1601, 22.0224
1602, 30.8558
1603, 27.994
1604, 24.1924
1605, 44.8098
1606, 60.6205
1607, 38.6765
1608, 20.421
1609, 4.84896
1610, -8.24103
1611, -1.99248
1612, 3.70724
1613, 9.02382
1614, 39.2402
1615, 54.7473
1616, 45.9298
1617, 22.4031
1618, -1.84378
1619, -4.24263
1620, 27.4278
1621, 46.9042
1622, 43.1496
1623, 22.1209
1624, 13.075
1625, 16.9507
1626, 22.5916
1627, 9.95668
1628, 1.79871
1629, 5.62779
1630, 18.4639
1631, 13.2097
1632, 2.13091
1633, 0.971846
1634, 18.6843
1635, 42.2827
1636, 54.4275
1637, 34.6113
1638, 19.7131
1639, 15.5852
1640, 13.7941
1641, 1.68098
1642, 0.913232
1643, 19.9632
1644, 30.4617
1645, 27.3745
1646, 8.41978
1647, -22.9494
1648, -18.0973
1649, 7.85394
1650, 23.9289