File: Raman_Spectroscopy_GAN/input/clinical_sample/s9/s9_4_785M-T_Rlab.csv
a,b
320, -6.937
321, 4.59221
322, 14.5155
323, 15.3038
324, 12.04
325, 13.6465
326, 18.6979
327, 21.061
328, 20.8289
329, 24.7941
330, 34.4673
331, 40.3615
332, 37.2708
333, 31.6453
334, 31.6474
335, 34.7006
336, 33.6286
337, 28.4015
338, 21.4038
339, 13.1802
340, 6.28961
341, 2.35149
342, 6.16646
343, 22.3917
344, 44.4683
345, 61.3981
346, 72.6058
347, 76.7946
348, 74.5469
349, 72.5443
350, 72.3127
351, 69.3604
352, 61.373
353, 54.1924
354, 54.4323
355, 58.4669
356, 57.5833
357, 52.3976
358, 47.945
359, 44.2012
360, 31.7902
361, 8.08238
362, -6.61838
363, -1.54491
364, 12.1256
365, 18.5431
366, 19.5946
367, 20.8157
368, 22.1858
369, 21.6576
370, 19.4022
371, 23.3072
372, 35.9536
373, 42.1799
374, 31.5361
375, 13.6452
376, 2.65889
377, -0.877123
378, 3.12982
379, 14.4137
380, 28.4474
381, 43.6766
382, 46.7727
383, 33.2584
384, 15.9558
385, 3.54681
386, -5.01305
387, -12.5603
388, -17.1209
389, -11.5655
390, 2.80372
391, 14.7093
392, 22.1229
393, 27.6157
394, 31.8586
395, 26.6709
396, 7.17314
397, -11.4659
398, -13.6462
399, -4.023
400, 7.9358
401, 23.1656
402, 43.8921
403, 66.8095
404, 81.6668
405, 86.1962
406, 89.9707
407, 97.525
408, 107.576
409, 118.957
410, 131.092
411, 142.955
412, 155.791
413, 173.783
414, 196.723
415, 221.128
416, 245.953
417, 264.676
418, 275.113
419, 279.719
420, 280.018
421, 280.519
422, 286.642
423, 295.26
424, 299.4
425, 297.219
426, 282.295
427, 256.397
428, 238.934
429, 233.45
430, 227.192
431, 215.181
432, 199.634
433, 182.111
434, 161.234
435, 135.171
436, 109.796
437, 99.0816
438, 98.7884
439, 88.523
440, 67.4696
441, 47.5099
442, 31.0909
443, 18.2076
444, 6.44065
445, 3.05306
446, 13.4297
447, 27.2521
448, 29.0054
449, 24.7075
450, 27.5966
451, 36.2369
452, 43.4782
453, 49.1335
454, 56.6102
455, 65.8111
456, 65.8479
457, 53.3786
458, 41.9002
459, 38.9859
460, 42.1925
461, 49.1159
462, 53.1282
463, 42.792
464, 22.0613
465, 2.93436
466, -11.4772
467, -12.501
468, -0.313373
469, 13.2023
470, 24.5268
471, 25.3846
472, 12.5582
473, -3.55193
474, -16.4038
475, -20.0058
476, -6.35117
477, 15.8863
478, 28.0037
479, 32.3687
480, 37.8499
481, 43.5735
482, 41.716
483, 33.1071
484, 35.944
485, 53.6985
486, 65.9557
487, 64.793
488, 64.6323
489, 74.6426
490, 79.9785
491, 64.9077
492, 39.0592
493, 19.1473
494, 4.89863
495, -4.7624
496, -9.8733
497, -6.49309
498, 4.35098
499, 9.93959
500, 7.30616
501, -0.270263
502, -11.325
503, -11.4099
504, 7.12511
505, 30.1075
506, 44.3407
507, 51.2911
508, 52.8118
509, 49.6579
510, 43.3025
511, 39.0158
512, 56.4092
513, 88.0745
514, 112.859
515, 129.72
516, 150.857
517, 177.512
518, 192.366
519, 190.203
520, 179.627
521, 164.727
522, 144.742
523, 119.124
524, 100.01
525, 101.018
526, 110.405
527, 108.116
528, 95.3341
529, 75.9037
530, 52.6393
531, 35.3369
532, 28.9635
533, 35.7342
534, 51.4361
535, 60.2013
536, 58.3763
537, 48.2507
538, 31.0954
539, 24.3803
540, 39.315
541, 56.0823
542, 61.8524
543, 64.6088
544, 73.2006
545, 80.1278
546, 73.1906
547, 60.2543
548, 59.952
549, 67.5935
550, 65.2761
551, 54.9865
552, 52.7328
553, 58.5189
554, 57.9611
555, 48.7432
556, 35.9756
557, 21.3976
558, 11.3757
559, 9.43259
560, 11.7014
561, 15.2479
562, 17.0495
563, 14.8327
564, 7.8839
565, -4.56644
566, -14.0688
567, -8.05258
568, 6.30071
569, 13.2509
570, 15.4653
571, 21.9696
572, 29.762
573, 25.1242
574, 11.2714
575, 12.669
576, 28.4423
577, 24.4121
578, -3.05483
579, -14.6244
580, -1.38867
581, 16.8262
582, 32.1288
583, 43.6046
584, 50.7049
585, 44.2577
586, 18.165
587, -6.02189
588, -9.56998
589, -0.0418806
590, 14.7259
591, 27.5221
592, 26.6861
593, 18.0569
594, 14.3165
595, 13.998
596, 11.9674
597, 8.41115
598, 5.02359
599, 1.85676
600, -1.34847
601, -3.57125
602, 3.46857
603, 19.3934
604, 26.3215
605, 20.9514
606, 10.9455
607, -1.13587
608, -8.93515
609, -10.8227
610, -4.74753
611, 10.6532
612, 21.2902
613, 18.9161
614, 11.2498
615, 3.82851
616, 1.22946
617, 7.74146
618, 16.1207
619, 18.0862
620, 14.5473
621, 6.84737
622, -0.19799
623, 2.05004
624, 13.5559
625, 33.1496
626, 54.1108
627, 58.4782
628, 51.3455
629, 52.5651
630, 60.1151
631, 59.8717
632, 50.5403
633, 32.9059
634, 9.20048
635, -7.00055
636, -13.8682
637, -2.01478
638, 29.19
639, 55.66
640, 71.4354
641, 76.0535
642, 70.208
643, 66.8629
644, 70.1153
645, 72.348
646, 70.5418
647, 66.3705
648, 60.575
649, 50.8052
650, 35.885
651, 25.7914
652, 26.8615
653, 28.0986
654, 21.3041
655, 14.7871
656, 17.2637
657, 22.5847
658, 25.9932
659, 30.2482
660, 38.6182
661, 44.209
662, 37.6181
663, 22.7975
664, 5.9704
665, -7.24288
666, -9.46515
667, -2.7888
668, 9.44881
669, 23.3042
670, 29.6659
671, 31.7682
672, 38.4056
673, 46.286
674, 45.2788
675, 37.1574
676, 29.0466
677, 21.6451
678, 15.6571
679, 12.2019
680, 15.1842
681, 22.5487
682, 24.5574
683, 20.4963
684, 11.7363
685, 0.636448
686, -2.17077
687, 2.94224
688, 8.74922
689, 13.2985
690, 13.5299
691, 10.0131
692, 9.23545
693, 11.9432
694, 15.7139
695, 19.8906
696, 22.9631
697, 24.4429
698, 22.8631
699, 18.5988
700, 17.2886
701, 19.6109
702, 20.5058
703, 18.563
704, 11.6715
705, 0.837036
706, 1.24596
707, 15.2136
708, 25.9702
709, 29.2105
710, 26.2773
711, 18.0212
712, 9.95069
713, 3.75198
714, 1.29379
715, 2.67276
716, 6.90609
717, 13.0195
718, 16.302
719, 15.9885
720, 20.51
721, 31.4798
722, 36.3649
723, 31.6899
724, 22.5215
725, 10.8569
726, 2.32879
727, -1.25809
728, -2.51679
729, -2.40547
730, -2.67111
731, -3.63054
732, -2.23464
733, 2.62417
734, 11.6171
735, 23.7717
736, 29.9201
737, 27.9579
738, 24.5209
739, 21.7856
740, 22.9025
741, 27.7256
742, 25.4652
743, 14.0633
744, 1.94817
745, -7.59626
746, -6.90398
747, 5.42108
748, 23.3068
749, 43.0504
750, 52.6734
751, 50.6128
752, 45.8098
753, 40.7927
754, 40.1033
755, 44.0091
756, 48.1275
757, 50.0414
758, 39.7116
759, 18.356
760, 3.28623
761, -2.92044
762, -3.84613
763, 0.488212
764, 13.0458
765, 30.5979
766, 37.2058
767, 34.1209
768, 34.5894
769, 39.1866
770, 44.6199
771, 50.5904
772, 57.1635
773, 62.5279
774, 61.0024
775, 52.6837
776, 39.0078
777, 25.776
778, 27.5904
779, 40.0518
780, 51.3779
781, 56.0521
782, 43.6825
783, 22.1282
784, 6.37794
785, 0.723274
786, 10.0048
787, 28.0482
788, 43.5719
789, 50.0253
790, 39.3185
791, 27.5464
792, 32.1308
793, 42.377
794, 48.3902
795, 52.9699
796, 58.2928
797, 59.2003
798, 52.3431
799, 47.7319
800, 50.8152
801, 46.1512
802, 26.8091
803, 13.9105
804, 17.1083
805, 19.5274
806, 16.2077
807, 17.2959
808, 24.7921
809, 26.4093
810, 19.9701
811, 14.2987
812, 10.4986
813, 2.98061
814, -6.29606
815, -3.91773
816, 9.42671
817, 20.7437
818, 27.8714
819, 28.68
820, 22.8328
821, 9.89979
822, -4.3556
823, -6.15847
824, 1.83631
825, 14.1357
826, 27.8154
827, 38.6629
828, 42.8196
829, 35.2463
830, 26.7987
831, 28.9085
832, 32.3748
833, 29.6437
834, 24.9738
835, 21.047
836, 13.4143
837, 0.280888
838, -6.05049
839, -1.80611
840, 2.78596
841, 4.81918
842, 5.84925
843, 6.86436
844, 11.6374
845, 19.4703
846, 22.1837
847, 19.389
848, 14.8193
849, 8.81706
850, 1.1194
851, -4.95585
852, -1.7691
853, 5.37212
854, 4.67798
855, 0.127895
856, -1.71984
857, 1.22094
858, 11.7534
859, 21.2629
860, 22.6313
861, 19.9913
862, 16.0737
863, 14.6544
864, 17.4161
865, 22.2325
866, 27.4589
867, 23.6743
868, 10.9097
869, 8.04164
870, 15.7525
871, 13.1105
872, 2.71608
873, 5.40537
874, 17.5581
875, 22.3523
876, 23.1352
877, 28.7466
878, 32.3359
879, 23.1976
880, 18.8959
881, 38.3103
882, 61.568
883, 73.6159
884, 71.397
885, 53.6198
886, 27.6863
887, -1.47513
888, -10.9411
889, 2.41292
890, 22.2092
891, 41.1609
892, 42.0392
893, 27.8873
894, 17.1123
895, 12.806
896, 18.7416
897, 30.6779
898, 41.0055
899, 41.7451
900, 23.5914
901, 5.91371
902, 4.67712
903, 12.8864
904, 25.5529
905, 28.5219
906, 17.5986
907, 5.81036
908, -3.06342
909, -7.29974
910, -6.3383
911, 2.56945
912, 16.2143
913, 21.6873
914, 23.8871
915, 33.998
916, 42.0289
917, 34.3828
918, 23.4713
919, 20.0766
920, 30.1195
921, 55.599
922, 70.8432
923, 66.7791
924, 50.3438
925, 26.8489
926, 17.0738
927, 25.8395
928, 50.4215
929, 77.5912
930, 74.8046
931, 55.2541
932, 42.9857
933, 37.8133
934, 39.1495
935, 43.537
936, 48.3796
937, 45.5909
938, 32.8117
939, 21.8393
940, 16.0849
941, 18.1622
942, 24.5121
943, 27.0324
944, 26.4897
945, 26.6939
946, 25.1832
947, 17.8474
948, 13.408
949, 19.9423
950, 21.3382
951, 9.15307
952, 1.17925
953, 3.28841
954, 8.43293
955, 14.5936
956, 21.7087
957, 27.0851
958, 22.6084
959, 16.0798
960, 23.2528
961, 29.0729
962, 16.068
963, 0.752596
964, -5.81933
965, -6.81036
966, -3.64498
967, 1.14956
968, 5.99585
969, 3.75509
970, -2.44762
971, -0.0317143
972, 7.00322
973, 8.9563
974, 6.04301
975, -1.14529
976, -4.48214
977, 0.966023
978, 16.6613
979, 39.6607
980, 43.4078
981, 27.1961
982, 14.6028
983, 7.18105
984, 1.48278
985, -0.282863
986, 5.18009
987, 8.83601
988, 3.08686
989, -2.39485
990, -3.25313
991, -1.90505
992, 0.570719
993, 1.30478
994, 2.59951
995, 13.3727
996, 29.3153
997, 41.6547
998, 44.497
999, 32.2546
1000, 20.3011
1001, 16.9528
1002, 16.8414
1003, 18.8107
1004, 26.5551
1005, 36.8325
1006, 36.26
1007, 30.2371
1008, 31.3982
1009, 32.7367
1010, 26.6104
1011, 16.9878
1012, 6.62295
1013, 2.50346
1014, 5.31104
1015, 4.18563
1016, -0.861569
1017, -4.23181
1018, -5.84997
1019, -5.89449
1020, -0.486013
1021, 14.0425
1022, 22.9024
1023, 19.5493
1024, 11.2196
1025, 2.14346
1026, 3.77219
1027, 10.6888
1028, 5.60129
1029, -2.11772
1030, 1.41112
1031, 7.09968
1032, 8.68988
1033, 15.2672
1034, 27.3231
1035, 24.8746
1036, 9.77568
1037, 1.70034
1038, 0.385141
1039, 1.86037
1040, 4.03541
1041, 4.96599
1042, 11.0464
1043, 23.1035
1044, 21.2707
1045, 6.46931
1046, 3.01053
1047, 5.34656
1048, -5.54592
1049, -15.0201
1050, -7.01819
1051, 2.69681
1052, 6.87979
1053, 12.6342
1054, 18.3516
1055, 6.8561
1056, -12.459
1057, -13.383
1058, -1.15732
1059, 17.8573
1060, 35.0577
1061, 45.0921
1062, 42.6655
1063, 31.1143
1064, 33.4512
1065, 43.2179
1066, 38.3009
1067, 30.8262
1068, 38.7572
1069, 63.6709
1070, 101.202
1071, 142.05
1072, 182.014
1073, 213.474
1074, 236.443
1075, 252.81
1076, 269.374
1077, 292.42
1078, 310.961
1079, 320.205
1080, 322.566
1081, 317.195
1082, 299.119
1083, 268.525
1084, 226.542
1085, 183.026
1086, 145.828
1087, 119.106
1088, 102.613
1089, 85.761
1090, 65.2707
1091, 37.0233
1092, 9.90662
1093, -11.7002
1094, -19.756
1095, -11.2306
1096, -4.24025
1097, -0.196657
1098, 12.9125
1099, 29.2266
1100, 35.3125
1101, 34.4587
1102, 29.7678
1103, 23.8015
1104, 18.5752
1105, 20.3475
1106, 25.4902
1107, 21.8936
1108, 13.4547
1109, 5.42983
1110, -2.52759
1111, -9.29397
1112, -2.59758
1113, 13.1112
1114, 10.9129
1115, 0.317019
1116, -0.969386
1117, -3.89573
1118, -13.4246
1119, -4.56247
1120, 20.5964
1121, 19.4981
1122, 2.81439
1123, -0.851893
1124, 4.29113
1125, 15.1343
1126, 27.6465
1127, 38.6692
1128, 38.614
1129, 29.7004
1130, 19.2409
1131, 8.96214
1132, 0.463373
1133, -0.707312
1134, 7.09316
1135, 23.3359
1136, 44.3894
1137, 64.1434
1138, 70.4902
1139, 54.1347
1140, 43.8854
1141, 46.5324
1142, 39.3691
1143, 26.5657
1144, 25.3501
1145, 26.9834
1146, 23.511
1147, 24.9597
1148, 32.2655
1149, 30.6939
1150, 20.244
1151, 5.55968
1152, 0.0851282
1153, 12.4896
1154, 19.2205
1155, 14.8571
1156, 12.0536
1157, 10.9332
1158, 8.62752
1159, 16.0938
1160, 37.6645
1161, 44.9088
1162, 32.3456
1163, 12.0984
1164, -7.24024
1165, -14.4651
1166, -6.99208
1167, 14.9475
1168, 25.1029
1169, 22.9336
1170, 27.9524
1171, 33.823
1172, 30.8023
1173, 27.9846
1174, 27.5824
1175, 15.3711
1176, -0.415247
1177, 6.99214
1178, 17.6086
1179, 12.4307
1180, 3.27742
1181, -3.04063
1182, 3.50438
1183, 18.1327
1184, 28.4058
1185, 29.9656
1186, 21.4177
1187, 14.3321
1188, 15.3548
1189, 36.435
1190, 51.8
1191, 31.6958
1192, 16.5496
1193, 19.0751
1194, 14.3586
1195, 6.91558
1196, 14.2498
1197, 15.3536
1198, -1.28871
1199, -0.366562
1200, 19.3864
1201, 30.4833
1202, 31.7264
1203, 24.5754
1204, 15.0079
1205, 8.20723
1206, 19.1955
1207, 41.1476
1208, 58.2048
1209, 63.9237
1210, 55.1976
1211, 40.2955
1212, 24.663
1213, 18.428
1214, 13.0086
1215, 0.213453
1216, 3.39393
1217, 25.0234
1218, 37.6348
1219, 39.1863
1220, 31.4336
1221, 16.1775
1222, -2.64096
1223, -5.85031
1224, -1.03395
1225, -10.8956
1226, -18.0245
1227, -10.4375
1228, 1.99175
1229, 14.7576
1230, 18.5895
1231, 12.5148
1232, -2.19694
1233, -1.00264
1234, 19.2038
1235, 37.8709
1236, 47.2216
1237, 40.2642
1238, 31.8425
1239, 29.655
1240, 43.1708
1241, 59.9091
1242, 62.6479
1243, 65.4149
1244, 75.0943
1245, 86.8885
1246, 98.425
1247, 106.469
1248, 102.273
1249, 83.28
1250, 73.2005
1251, 76.9995
1252, 94.3523
1253, 107.455
1254, 105.393
1255, 112.04
1256, 125.507
1257, 124.388
1258, 119.474
1259, 119.436
1260, 105.963
1261, 81.7616
1262, 70.3504
1263, 67.1115
1264, 65.1772
1265, 52.3182
1266, 32.8616
1267, 35.8558
1268, 51.3923
1269, 63.0127
1270, 62.1543
1271, 50.8932
1272, 45.0443
1273, 50.2645
1274, 69.841
1275, 86.9065
1276, 93.1391
1277, 78.5884
1278, 60.9595
1279, 58.2997
1280, 60.6409
1281, 60.8024
1282, 45.6056
1283, 37.4067
1284, 56.3192
1285, 73.2017
1286, 77.4966
1287, 63.0355
1288, 32.6275
1289, -7.33378
1290, -20.4908
1291, -5.50925
1292, 19.4842
1293, 36.5266
1294, 34.2325
1295, 32.7175
1296, 35.9318
1297, 41.9622
1298, 45.1664
1299, 41.0726
1300, 24.4674
1301, 8.0703
1302, 20.2002
1303, 37.8697
1304, 46.3194
1305, 35.1691
1306, 13.7129
1307, 0.583514
1308, 5.98476
1309, 30.3468
1310, 51.9523
1311, 62.5958
1312, 55.9508
1313, 49.8808
1314, 46.8847
1315, 33.0314
1316, 12.0148
1317, -9.60107
1318, -13.5428
1319, -1.31942
1320, 11.3943
1321, 18.2526
1322, 17.7752
1323, 27.9584
1324, 48.6289
1325, 71.9138
1326, 73.8951
1327, 47.1202
1328, 14.274
1329, -3.50707
1330, 15.3952
1331, 29.8736
1332, 26.1026
1333, 7.48636
1334, -8.10533
1335, -6.53655
1336, 7.00542
1337, 23.948
1338, 24.5038
1339, 17.4638
1340, 11.1783
1341, 22.4879
1342, 38.6526
1343, 40.2846
1344, 38.8964
1345, 37.7758
1346, 33.6097
1347, 29.1268
1348, 26.6627
1349, 24.3245
1350, 22.34
1351, 22.1195
1352, 26.3939
1353, 31.951
1354, 17.7077
1355, 0.886893
1356, 4.20777
1357, 14.5632
1358, 25.2851
1359, 30.6042
1360, 32.3079
1361, 32.1321
1362, 32.2754
1363, 31.4209
1364, 26.6753
1365, 11.1066
1366, -8.65989
1367, -4.99343
1368, 12.6024
1369, 33.2887
1370, 41.5834
1371, 37.8796
1372, 28.4888
1373, 28.2427
1374, 36.5089
1375, 31.1738
1376, 15.1062
1377, -5.20564
1378, -10.8094
1379, 2.43858
1380, 35.8657
1381, 59.408
1382, 63.9925
1383, 59.5915
1384, 57.5433
1385, 64.3359
1386, 67.1221
1387, 64.6512
1388, 58.9991
1389, 52.6275
1390, 45.8816
1391, 37.0375
1392, 24.2899
1393, 11.1068
1394, 26.049
1395, 54.8832
1396, 73.3222
1397, 81.4841
1398, 74.6565
1399, 41.5161
1400, 24.7157
1401, 40.8807
1402, 39.5893
1403, 33.0271
1404, 38.6902
1405, 40.2717
1406, 41.4231
1407, 55.5464
1408, 54.2155
1409, 37.5436
1410, 46.4382
1411, 56.9712
1412, 51.0581
1413, 40.1957
1414, 21.3642
1415, -7.77608
1416, 1.32056
1417, 39.4736
1418, 52.1015
1419, 43.3675
1420, 19.2183
1421, -9.30816
1422, -17.5855
1423, 7.96671
1424, 37.1832
1425, 60.7847
1426, 74.5014
1427, 72.1131
1428, 58.9675
1429, 50.4997
1430, 40.537
1431, 31.1952
1432, 40.2462
1433, 47.8579
1434, 39.331
1435, 18.5224
1436, 0.337741
1437, 1.03129
1438, 16.1735
1439, 36.0853
1440, 45.3712
1441, 41.9063
1442, 36.913
1443, 61.4104
1444, 69.0187
1445, 40.6213
1446, 5.32899
1447, -11.0825
1448, 4.21056
1449, 30.846
1450, 42.7238
1451, 17.7738
1452, 4.15676
1453, 17.824
1454, 60.8513
1455, 70.6107
1456, 38.5518
1457, -0.058887
1458, -3.25416
1459, 35.6435
1460, 72.3673
1461, 84.8059
1462, 65.714
1463, 40.1252
1464, 25.1258
1465, 32.9337
1466, 38.3625
1467, 42.391
1468, 51.8658
1469, 67.093
1470, 75.9071
1471, 59.3308
1472, 51.9987
1473, 60.3805
1474, 72.6243
1475, 86.7796
1476, 94.3708
1477, 73.2702
1478, 48.8352
1479, 40.1356
1480, 63.1163
1481, 77.3856
1482, 60.7097
1483, 43.8306
1484, 27.3924
1485, 12.1305
1486, 19.8081
1487, 24.632
1488, 2.05762
1489, -4.94013
1490, 5.29836
1491, 23.0058
1492, 24.8128
1493, 16.786
1494, 17.3907
1495, 25.7879
1496, 32.3383
1497, 20.3322
1498, 0.613129
1499, -15.128
1500, -11.9603
1501, 3.16895
1502, 19.7271
1503, 16.4164
1504, 22.5004
1505, 38.4186
1506, 29.5387
1507, 10.7468
1508, -5.70143
1509, -7.72153
1510, 20.0512
1511, 68.2666
1512, 77.2781
1513, 58.9112
1514, 29.5423
1515, 13.4635
1516, 16.4826
1517, 32.12
1518, 27.1132
1519, 10.2904
1520, -5.78797
1521, -3.2232
1522, 9.26686
1523, 22.5158
1524, 28.1092
1525, 29.1104
1526, 28.6373
1527, 27.9759
1528, 16.6991
1529, -4.29124
1530, 0.232888
1531, 14.1048
1532, 22.9034
1533, 27.6795
1534, 29.43
1535, 30.3948
1536, 37.1874
1537, 41.8851
1538, 37.7787
1539, 21.6802
1540, 15.2605
1541, 25.9331
1542, 28.0323
1543, 13.2
1544, -11.3018
1545, -8.84544
1546, 1.21149
1547, 10.6149
1548, 30.6819
1549, 36.7751
1550, 30.821
1551, 56.3447
1552, 67.8625
1553, 49.5602
1554, 21.0881
1555, 5.07306
1556, 5.58361
1557, 9.27356
1558, 10.5209
1559, 4.55367
1560, -12.5283
1561, -13.3791
1562, -2.57385
1563, -1.61024
1564, 15.8705
1565, 41.1712
1566, 50.0341
1567, 46.5076
1568, 33.0632
1569, 16.0733
1570, 28.3334
1571, 53.4745
1572, 67.2747
1573, 84.9812
1574, 114.791
1575, 158.101
1576, 199.959
1577, 230.989
1578, 246.425
1579, 247.478
1580, 254.559
1581, 266.324
1582, 251.588
1583, 233.008
1584, 214.477
1585, 184.364
1586, 158.427
1587, 129.666
1588, 81.4209
1589, 41.1553
1590, 16.8401
1591, 9.6112
1592, 4.663
1593, -1.44632
1594, -7.15237
1595, -1.35216
1596, 14.6705
1597, 32.0093
1598, 28.5894
1599, 15.9283
1600, 1.77163
1601, -9.06823
1602, -5.74976
1603, 10.063
1604, 26.8661
1605, 25.1166
1606, 19.561
1607, 25.7443
1608, 6.91031
1609, 3.04412
1610, 30.6704
1611, 20.8395
1612, 15.6622
1613, 25.7611
1614, 16.0836
1615, 15.0307
1616, 19.6683
1617, 8.80499
1618, -2.52029
1619, -4.70069
1620, 5.61436
1621, 12.1275
1622, 16.5659
1623, 22.8824
1624, 33.0894
1625, 41.0097
1626, 40.8756
1627, 27.7447
1628, 15.9751
1629, 13.366
1630, 22.5713
1631, 30.0627
1632, 31.7663
1633, 27.9949
1634, 25.0512
1635, 30.012
1636, 31.9031
1637, 4.6271
1638, -1.45019
1639, 10.6063
1640, 18.1127
1641, 15.3399
1642, 1.56388
1643, -14.2218
1644, -5.22597
1645, 24.4107
1646, 51.4716
1647, 39.9608
1648, 22.7936
1649, 9.39493
1650, 2.75901