File: Raman_Spectroscopy_GAN/input/clinical_sample/s5/s5_1_785M-T_Rlab.csv
a,b
320, -31.3806
321, -19.632
322, -15.1594
323, -11.735
324, -8.23736
325, -2.94959
326, 3.11807
327, 4.54216
328, 1.58145
329, 0.857646
330, 4.04096
331, 11.467
332, 23.8879
333, 35.8189
334, 39.9403
335, 37.8023
336, 32.4067
337, 23.6238
338, 11.963
339, -2.69225
340, -6.36422
341, 6.42904
342, 19.3305
343, 19.1189
344, 13.116
345, 14.3175
346, 19.7016
347, 16.3351
348, 4.17335
349, -2.49996
350, -0.656266
351, 5.5926
352, 14.6579
353, 22.8712
354, 25.8739
355, 22.7978
356, 10.5442
357, -9.39279
358, -24.6485
359, -34.3634
360, -34.446
361, -23.4809
362, -10.5906
363, -0.906492
364, 3.94322
365, 0.888846
366, -6.42117
367, -7.61513
368, -3.90254
369, -5.17124
370, -12.3497
371, -12.5549
372, -1.26203
373, 7.89414
374, 5.65317
375, -1.47859
376, -4.31694
377, -3.68106
378, -1.33178
379, 1.61565
380, -1.99508
381, -13.1957
382, -23.9672
383, -32.1905
384, -33.5673
385, -24.7683
386, -11.5885
387, -2.13989
388, 1.60272
389, -7.85207
390, -27.5422
391, -35.4085
392, -29.4248
393, -20.2888
394, -10.7282
395, -7.85523
396, -16.1943
397, -27.3482
398, -31.2633
399, -31.0416
400, -33.0603
401, -35.7185
402, -30.0189
403, -16.0492
404, -9.5558
405, -13.7055
406, -13.6327
407, -2.09505
408, 14.0225
409, 29.014
410, 40.9128
411, 44.7245
412, 43.645
413, 47.271
414, 54.7468
415, 54.0396
416, 43.9618
417, 41.3674
418, 51.7831
419, 55.3214
420, 39.3237
421, 22.3071
422, 26.7548
423, 40.1538
424, 34.9486
425, 15.5804
426, 4.39971
427, 2.16348
428, 3.19383
429, 6.28575
430, 9.06306
431, 10.7272
432, 8.16619
433, -1.17976
434, -14.7642
435, -29.3195
436, -40.2
437, -34.0594
438, -15.7271
439, -8.9304
440, -14.0385
441, -16.8874
442, -14.7397
443, -11.2352
444, -7.50073
445, -0.961913
446, 10.5281
447, 21.5566
448, 25.0425
449, 23.421
450, 21.1413
451, 17.1926
452, 7.62678
453, -7.3207
454, -18.6542
455, -25.1848
456, -22.5907
457, -9.14541
458, 7.2918
459, 23.1999
460, 25.8344
461, 1.35276
462, -30.894
463, -36.5137
464, -24.591
465, -20.4517
466, -22.1759
467, -14.3128
468, 3.50212
469, 9.99123
470, 1.4238
471, 1.72117
472, 20.5998
473, 34.1025
474, 26.4328
475, 9.29878
476, -4.69879
477, -17.3476
478, -30.6889
479, -40.7247
480, -31.7821
481, -6.8778
482, 10.0226
483, 17.332
484, 20.4521
485, 20.5879
486, 12.5493
487, -6.2886
488, -17.8517
489, -10.6078
490, 0.996227
491, 2.04302
492, -1.85889
493, -1.54357
494, -1.11318
495, -12.3162
496, -31.2923
497, -35.2913
498, -24.472
499, -16.9684
500, -15.7016
501, -18.0472
502, -23.3502
503, -28.9306
504, -33.7253
505, -30.58
506, -13.2438
507, 5.26905
508, 8.17552
509, 3.94893
510, 8.3884
511, 18.6707
512, 24.721
513, 27.6199
514, 33.3384
515, 41.5682
516, 41.1081
517, 30.953
518, 30.8083
519, 46.3437
520, 51.3411
521, 33.2121
522, 9.51728
523, -8.20082
524, -16.4783
525, -10.2692
526, 3.54927
527, 13.5518
528, 18.9129
529, 16.106
530, 6.52976
531, -3.7781
532, -13.359
533, -12.8569
534, -2.58541
535, 0.587059
536, -6.60492
537, -13.5601
538, -16.9581
539, -15.4683
540, -8.12204
541, 0.875545
542, 8.7757
543, 10.0185
544, -2.31004
545, -17.0232
546, -15.3986
547, -4.52921
548, -0.805902
549, -1.12556
550, 5.78572
551, 18.4437
552, 23.6569
553, 21.6667
554, 23.3265
555, 29.3972
556, 23.4419
557, 1.23207
558, -18.1122
559, -28.2338
560, -29.0252
561, -19.9985
562, -7.35857
563, 4.81286
564, 12.9165
565, 12.5684
566, 4.4392
567, -11.2096
568, -27.5703
569, -28.8399
570, -18.6466
571, -7.43787
572, 4.00762
573, 12.195
574, 16.3308
575, 10.6789
576, -3.90034
577, -11.095
578, -9.11126
579, -11.2271
580, -20.5942
581, -21.8049
582, -9.21225
583, 3.51302
584, 10.1798
585, 13.8759
586, 16.5803
587, 12.7798
588, -3.09608
589, -17.7462
590, -14.4435
591, -1.94437
592, 6.2011
593, 10.86
594, 13.0414
595, 12.7068
596, 9.07292
597, 2.83431
598, -2.7379
599, -7.47664
600, -10.0922
601, -10.8856
602, -11.5146
603, -12.1537
604, -11.5905
605, -9.23235
606, -1.91799
607, 11.0633
608, 16.3826
609, 9.57697
610, -2.08299
611, -16.0088
612, -25.8192
613, -28.0551
614, -21.2716
615, -3.60278
616, 11.3382
617, 11.0481
618, 5.10053
619, 4.06822
620, 6.08661
621, 8.76605
622, 10.9493
623, 10.3261
624, 7.45169
625, 3.51515
626, -2.79764
627, -14.7333
628, -30.266
629, -39.9717
630, -42.2822
631, -30.7287
632, -6.81196
633, 15.6537
634, 35.4272
635, 46.4952
636, 48.4742
637, 40.3057
638, 21.8432
639, -0.185033
640, -24.329
641, -34.4195
642, -26.661
643, -9.61463
644, 14.2067
645, 25.5991
646, 17.5148
647, 5.25507
648, -4.66351
649, -6.50555
650, 3.0872
651, 11.5123
652, 10.9419
653, 5.42696
654, -2.50827
655, -5.6966
656, 2.47513
657, 5.20845
658, -15.1721
659, -37.0353
660, -34.5247
661, -16.8471
662, 4.80956
663, 23.9925
664, 29.3476
665, 20.8347
666, -3.13963
667, -29.6756
668, -31.1411
669, -12.7929
670, 14.079
671, 38.4385
672, 30.0417
673, 0.172447
674, -16.8115
675, -21.0045
676, -14.4278
677, -1.45897
678, 2.74507
679, 0.00357039
680, 0.0369164
681, 1.4818
682, -4.75362
683, -15.9372
684, -14.11
685, -1.02589
686, 4.46074
687, 3.78194
688, 15.363
689, 37.9792
690, 45.1324
691, 35.5585
692, 24.0771
693, 12.93
694, 5.5947
695, 2.02077
696, 0.678114
697, 0.926946
698, 0.679251
699, -0.806424
700, -5.93168
701, -14.9292
702, -21.8251
703, -25.4277
704, -23.5512
705, -16.6255
706, -16.2713
707, -24.1803
708, -26.2416
709, -18.5837
710, 0.805353
711, 31.5634
712, 46.512
713, 39.5987
714, 22.2891
715, -2.1935
716, -18.8344
717, -23.8969
718, -15.1031
719, 6.89128
720, 13.7625
721, -0.972966
722, -10.7327
723, -8.59792
724, -4.19739
725, 0.279315
726, 10.7552
727, 28.1945
728, 31.1061
729, 14.4775
730, 0.730765
731, -4.80638
732, -11.2222
733, -20.8388
734, -23.4569
735, -16.9992
736, -12.6499
737, -12.8994
738, -11.6368
739, -7.18604
740, -1.32259
741, 4.9913
742, 2.51353
743, -9.95077
744, -16.5229
745, -14.1606
746, -9.58768
747, -3.89042
748, 5.1551
749, 17.1082
750, 18.568
751, 8.08341
752, -2.08141
753, -9.66367
754, -12.2092
755, -9.88801
756, -6.28083
757, -2.23592
758, -0.451396
759, -1.80429
760, -9.4162
761, -21.5095
762, -23.0783
763, -13.7373
764, -1.75515
765, 11.0018
766, 17.5701
767, 17.514
768, 10.4693
769, -0.00840903
770, 1.29124
771, 12.2967
772, 21.1245
773, 25.04
774, 16.5417
775, -0.371658
776, -12.0483
777, -17.5782
778, -14.5881
779, -8.36355
780, -11.4506
781, -18.9893
782, -20.0239
783, -13.4762
784, 2.82849
785, 22.9315
786, 36.4532
787, 37.3325
788, 15.295
789, -12.1881
790, -23.1706
791, -21.4595
792, -9.89581
793, 3.68455
794, 12.3249
795, 18.9226
796, 25.7211
797, 30.0007
798, 29.8344
799, 22.9983
800, 7.79691
801, -6.94049
802, -17.3256
803, -20.7411
804, -16.1466
805, -6.61798
806, 6.42737
807, 10.0004
808, 1.91249
809, 1.48147
810, 11.8821
811, 16.8399
812, 13.8941
813, 8.50848
814, 2.14191
815, -0.775051
816, -0.474042
817, 0.049801
818, 0.500229
819, 0.945715
820, 0.57442
821, -3.2062
822, -7.82926
823, -6.11375
824, 0.138723
825, 6.86937
826, 8.84557
827, -3.2293
828, -18.1441
829, -20.7253
830, -16.4065
831, -10.2952
832, -5.00112
833, -2.69661
834, -7.19233
835, -21.1543
836, -28.3305
837, -20.5712
838, -5.51237
839, 13.9281
840, 26.2672
841, 28.8525
842, 27.8992
843, 25.1488
844, 22.3651
845, 19.4199
846, 14.5401
847, 6.91318
848, -4.63114
849, -18.9401
850, -29.6947
851, -35.5194
852, -32.286
853, -21.5299
854, -6.32406
855, 7.85582
856, 11.9597
857, 9.99829
858, 6.02016
859, -2.8388
860, -19.3617
861, -30.1342
862, -27.0602
863, -20.9244
864, -15.9511
865, -3.60209
866, 18.152
867, 28.6915
868, 25.5738
869, 28.1417
870, 35.6628
871, 23.4769
872, -4.2335
873, -16.3087
874, -17.1776
875, -24.9085
876, -33.7122
877, -28.8186
878, -19.012
879, -17.9701
880, -13.9015
881, 6.20967
882, 24.0252
883, 26.1201
884, 18.964
885, 5.74316
886, -4.59372
887, -8.69412
888, -2.97842
889, 11.5493
890, 16.7098
891, 10.2935
892, -2.51274
893, -17.5871
894, -20.5707
895, -12.5889
896, 1.8967
897, 14.4587
898, 9.72928
899, -0.457599
900, -2.09836
901, 0.678937
902, 4.90039
903, 8.28259
904, 9.34573
905, 1.88038
906, -15.3318
907, -23.5902
908, -19.7053
909, -12.3677
910, -2.25299
911, 12.5296
912, 28.6086
913, 33.3772
914, 28.619
915, 18.1704
916, 6.56993
917, -0.112342
918, -7.21813
919, -19.2515
920, -25.197
921, -19.1159
922, -7.62451
923, 7.21054
924, 22.3332
925, 35.4991
926, 32.7816
927, 17.5278
928, 11.0938
929, 9.39507
930, -1.68164
931, -13.9296
932, -12.2867
933, -5.43112
934, -2.10173
935, -1.10107
936, -2.01043
937, -10.8013
938, -28.3336
939, -28.7344
940, -8.45926
941, 9.61575
942, 21.0712
943, 19.6162
944, 8.82431
945, -1.51767
946, -7.75172
947, -3.95084
948, 4.54162
949, 12.8537
950, 10.0586
951, -9.24251
952, -15.2528
953, -0.668563
954, 2.64823
955, -7.98429
956, -10.5211
957, -5.29755
958, -1.47938
959, 6.55073
960, 30.7139
961, 42.8019
962, 9.14589
963, -29.0683
964, -45.4704
965, -35.4422
966, 0.00860442
967, 20.185
968, 18.3255
969, 6.41369
970, -11.5767
971, -26.8768
972, -33.3692
973, -18.7225
974, -3.86744
975, -12.0962
976, -15.9072
977, 0.988463
978, 16.1093
979, 21.5249
980, 15.4943
981, 0.0883812
982, -11.8888
983, -16.5602
984, -5.60951
985, 8.16851
986, 3.8685
987, -10.2001
988, -27.3631
989, -38.837
990, -40.7335
991, -35.2278
992, -25.6242
993, -29.9084
994, -40.6167
995, -23.6189
996, 12.7845
997, 48.6624
998, 75.7682
999, 85.2877
1000, 85.7229
1001, 81.3673
1002, 71.48
1003, 54.3453
1004, 24.2336
1005, -16.5271
1006, -51.2337
1007, -72.2955
1008, -63.7614
1009, -40.2244
1010, -16.4159
1011, -7.05492
1012, -19.083
1013, -30.2857
1014, -34.4877
1015, -32.4623
1016, -23.8072
1017, -6.8318
1018, 12.2426
1019, 21.2956
1020, 25.3332
1021, 29.0639
1022, 42.9301
1023, 69.945
1024, 78.5884
1025, 64.932
1026, 48.4763
1027, 29.2293
1028, 2.36944
1029, -17.4941
1030, -8.49011
1031, -0.355321
1032, -12.2397
1033, -19.6516
1034, -16.8469
1035, -24.5381
1036, -39.7835
1037, -37.3447
1038, -23.295
1039, -11.9177
1040, -3.19885
1041, 3.01437
1042, 7.45071
1043, 10.3366
1044, 9.49903
1045, 5.76796
1046, 5.1714
1047, 0.467037
1048, -26.055
1049, -50.8145
1050, -47.3356
1051, -36.6893
1052, -29.1084
1053, -21.6701
1054, -14.2539
1055, -11.8748
1056, -16.7359
1057, -33.3512
1058, -54.6108
1059, -72.1686
1060, -91.0056
1061, -111.637
1062, -99.8273
1063, -56.2936
1064, -34.5313
1065, -29.1312
1066, -14.4054
1067, 2.74473
1068, 13.9545
1069, 48.3306
1070, 117.65
1071, 160.782
1072, 169.701
1073, 169.482
1074, 161.762
1075, 143.356
1076, 123.623
1077, 111.432
1078, 96.8688
1079, 75.2653
1080, 51.1673
1081, 25.995
1082, 5.64289
1083, -13.8789
1084, -39.1209
1085, -53.8939
1086, -46.3377
1087, -36.9989
1088, -33.339
1089, -38.6096
1090, -51.5541
1091, -66.9699
1092, -78.0765
1093, -75.9946
1094, -66.3775
1095, -52.3628
1096, -40.697
1097, -31.7494
1098, -22.1954
1099, -12.2565
1100, -3.6541
1101, 2.76343
1102, 6.19958
1103, 5.41546
1104, 0.931056
1105, -0.66665
1106, -0.15295
1107, -2.08282
1108, -0.0882244
1109, 13.3062
1110, 16.4974
1111, 2.52247
1112, 4.87925
1113, 19.7836
1114, 8.65512
1115, -7.9715
1116, 5.60955
1117, 13.6283
1118, -3.70069
1119, -12.5554
1120, -9.17265
1121, -15.5945
1122, -23.6528
1123, -13.4842
1124, 2.11894
1125, 13.3143
1126, 12.5377
1127, 0.694268
1128, -4.63324
1129, -1.10111
1130, 12.4129
1131, 25.4198
1132, 28.4378
1133, 11.2166
1134, -23.3955
1135, -33.8494
1136, -21.378
1137, -0.0564957
1138, 19.9112
1139, 29.7063
1140, 28.5405
1141, 17.9051
1142, 9.25608
1143, 1.33819
1144, -11.8248
1145, -24.4115
1146, -30.6372
1147, -23.8904
1148, -4.94762
1149, 6.22209
1150, 12.6508
1151, 25.9288
1152, 31.8564
1153, 18.5715
1154, -0.565456
1155, -19.7291
1156, -27.9989
1157, -25.3455
1158, -13.119
1159, -0.369844
1160, 6.80146
1161, 11.1444
1162, 12.138
1163, 3.57649
1164, -10.8254
1165, -23.8558
1166, -27.2664
1167, -17.102
1168, -5.71872
1169, 3.73698
1170, 8.86085
1171, 10.8668
1172, 11.012
1173, 3.91608
1174, -11.3149
1175, -20.3338
1176, -19.539
1177, -4.93157
1178, 14.5009
1179, 30.1171
1180, 31.4371
1181, 19.0083
1182, 13.2127
1183, 11.6062
1184, 5.97287
1185, 2.15798
1186, 2.74381
1187, -3.69354
1188, -15.9213
1189, -20.4725
1190, -20.3313
1191, -19.3999
1192, -9.78778
1193, 8.09756
1194, 10.1227
1195, -0.625691
1196, -11.2592
1197, -19.8721
1198, -24.981
1199, -21.723
1200, -10.125
1201, 5.03752
1202, 11.9411
1203, -3.14617
1204, -10.1291
1205, 1.15916
1206, 17.3887
1207, 33.4787
1208, 42.1062
1209, 33.3404
1210, 3.33044
1211, -13.9086
1212, -13.8304
1213, -4.23931
1214, 6.46676
1215, 10.6704
1216, 16.8164
1217, 23.2797
1218, 8.42929
1219, -14.6904
1220, -22.1589
1221, -23.734
1222, -22.8184
1223, -9.38208
1224, 5.02629
1225, -9.84337
1226, -28.0168
1227, -31.5484
1228, -28.2792
1229, -18.9148
1230, -0.0167912
1231, 17.1942
1232, 21.2106
1233, 12.035
1234, -5.07262
1235, -7.3345
1236, 0.147441
1237, 8.04609
1238, 8.94465
1239, 2.07297
1240, 0.0179248
1241, 4.11234
1242, 13.9743
1243, 17.2784
1244, 9.4872
1245, 4.00633
1246, -0.709278
1247, -12.1454
1248, -18.2179
1249, -12.3903
1250, -5.96156
1251, 3.18854
1252, 25.5327
1253, 38.2512
1254, 25.7449
1255, 9.18985
1256, -3.6738
1257, -3.63719
1258, 4.65934
1259, 16.4476
1260, 20.7752
1261, 14.6746
1262, -2.56367
1263, -11.823
1264, 3.41837
1265, 16.2712
1266, 18.3901
1267, 6.38332
1268, -7.81129
1269, -12.0848
1270, -6.48173
1271, 5.00437
1272, 7.97501
1273, 8.7335
1274, 14.0502
1275, 13.9126
1276, 6.0865
1277, -6.52194
1278, -15.1509
1279, -11.2852
1280, -1.26872
1281, 8.03033
1282, -1.06148
1283, -15.3153
1284, -21.0944
1285, -18.3278
1286, -9.35028
1287, -1.68128
1288, 3.70809
1289, 6.22111
1290, 5.05118
1291, -2.08487
1292, -20.9573
1293, -33.2544
1294, -25.5548
1295, -9.64748
1296, 12.6649
1297, 42.2339
1298, 46.8668
1299, 11.3017
1300, -10.2795
1301, -15.3279
1302, -17.9463
1303, -7.93016
1304, 15.2077
1305, 15.1891
1306, 1.50555
1307, -1.35994
1308, -3.42528
1309, -9.35854
1310, -18.8967
1311, -25.4647
1312, -20.0447
1313, -3.41287
1314, 16.5903
1315, 10.3809
1316, -4.10115
1317, -8.28559
1318, -12.1686
1319, -13.5497
1320, 1.00533
1321, 4.14435
1322, -17.824
1323, -16.5252
1324, 3.06228
1325, 13.6271
1326, 15.7125
1327, 10.4515
1328, 1.28483
1329, -6.61602
1330, -6.98625
1331, -7.41554
1332, -7.70672
1333, 1.90038
1334, 13.1291
1335, 18.4349
1336, 19.9836
1337, 13.8455
1338, -9.92467
1339, -19.534
1340, -3.11933
1341, 3.69684
1342, -0.147459
1343, -8.86667
1344, -10.8313
1345, -4.26557
1346, 2.83634
1347, 10.6505
1348, 17.6105
1349, 3.57398
1350, -16.6736
1351, -3.5646
1352, 3.17674
1353, -9.62635
1354, -7.8078
1355, 1.97032
1356, 8.14172
1357, 22.5822
1358, 38.134
1359, 24.9017
1360, 1.14444
1361, -19.6903
1362, -27.9536
1363, -20.5317
1364, 4.61408
1365, 20.6159
1366, 19.984
1367, 7.62153
1368, -6.64297
1369, -14.5525
1370, -6.39934
1371, 6.42756
1372, 2.08737
1373, -6.30295
1374, -12.4586
1375, -11.7097
1376, -6.71453
1377, 0.485052
1378, 10.9227
1379, 20.0168
1380, 18.8223
1381, 5.58123
1382, -14.3708
1383, -18.6529
1384, -5.78651
1385, 20.6326
1386, 29.8548
1387, 22.0513
1388, 6.33049
1389, -4.09929
1390, -7.33437
1391, -11.3183
1392, -13.3948
1393, -11.8866
1394, -10.3332
1395, -7.53118
1396, -1.20712
1397, 5.40005
1398, 12.6668
1399, 23.4198
1400, 24.3331
1401, 10.8087
1402, -2.12929
1403, -12.3625
1404, -18.3497
1405, -10.5195
1406, 2.04996
1407, -2.09657
1408, -0.201455
1409, 12.0175
1410, 15.8406
1411, 11.0273
1412, -1.46614
1413, -18.609
1414, -30.0143
1415, -23.2249
1416, -15.2423
1417, -12.8585
1418, -20.6118
1419, -16.9149
1420, 2.65026
1421, 14.853
1422, 14.1572
1423, 0.75131
1424, -2.87528
1425, -1.43961
1426, -5.60194
1427, -5.94366
1428, -3.12877
1429, -4.40529
1430, -5.56323
1431, -4.0597
1432, 2.06753
1433, 6.27427
1434, 4.51911
1435, 1.10964
1436, -3.26849
1437, -6.52344
1438, 10.7795
1439, 32.578
1440, 21.5772
1441, 0.167839
1442, -18.8779
1443, -21.5461
1444, -7.87067
1445, 12.9041
1446, 1.97572
1447, -14.983
1448, -15.1522
1449, -3.22648
1450, 10.9054
1451, 15.7488
1452, 9.71604
1453, -0.31397
1454, -1.94939
1455, -8.91607
1456, -16.6101
1457, -1.03862
1458, 16.4236
1459, 25.6768
1460, 27.6365
1461, 9.45331
1462, -27.5308
1463, -29.3306
1464, -15.6251
1465, -9.24658
1466, -0.309864
1467, 4.99597
1468, -2.35714
1469, -3.8811
1470, 2.43043
1471, 12.552
1472, 28.804
1473, 41.9721
1474, 28.5753
1475, 6.24047
1476, -14.8803
1477, -25.645
1478, -17.5983
1479, 6.12548
1480, 15.7734
1481, 16.3365
1482, 12.7789
1483, 5.11805
1484, -4.2406
1485, -12.3783
1486, -13.4239
1487, -11.3234
1488, -10.4243
1489, -4.75417
1490, 3.35334
1491, 8.86105
1492, 8.5958
1493, 1.3248
1494, -12.1794
1495, -9.82428
1496, 6.32286
1497, 19.6453
1498, 12.5914
1499, -9.65892
1500, -22.5021
1501, -13.326
1502, 9.45184
1503, 13.3534
1504, 9.51977
1505, 2.87509
1506, -7.07842
1507, -8.17651
1508, -2.13625
1509, -12.0486
1510, -9.72347
1511, 10.5018
1512, 13.9683
1513, 6.18102
1514, -5.30165
1515, -8.55184
1516, -3.41035
1517, 7.02195
1518, 11.5499
1519, 4.51254
1520, -13.3741
1521, -25.198
1522, -22.2922
1523, -6.24901
1524, -5.52414
1525, -3.66706
1526, 7.38316
1527, 3.76686
1528, 3.25985
1529, 13.4769
1530, 4.92109
1531, -0.123204
1532, 7.35457
1533, -10.9817
1534, -25.0484
1535, -15.2998
1536, 1.26582
1537, 15.7832
1538, 19.1474
1539, -6.63826
1540, -20.9426
1541, -4.46413
1542, 12.651
1543, 17.9631
1544, 7.76248
1545, -9.76341
1546, -19.6032
1547, -18.1395
1548, -19.6009
1549, -21.2266
1550, -19.1273
1551, -7.80315
1552, -1.79284
1553, -7.65493
1554, -23.7706
1555, -25.3384
1556, -10.5975
1557, -0.049417
1558, 2.93744
1559, -6.63708
1560, -34.1734
1561, -28.2388
1562, -4.36878
1563, -15.6114
1564, -8.46735
1565, 6.89216
1566, -1.95685
1567, 16.9996
1568, 38.4323
1569, 21.8691
1570, 17.4823
1571, 17.3984
1572, 7.04965
1573, 3.21495
1574, 9.31022
1575, 26.4544
1576, 54.4813
1577, 76.2412
1578, 81.9794
1579, 75.6746
1580, 66.7542
1581, 59.2489
1582, 51.5379
1583, 31.1833
1584, 3.97517
1585, -6.75516
1586, -10.4763
1587, -11.6329
1588, -13.4467
1589, -26.856
1590, -43.2716
1591, -48.7753
1592, -41.9663
1593, -34.3242
1594, -34.1229
1595, -32.5381
1596, -21.9537
1597, -1.96819
1598, 13.756
1599, 15.5369
1600, 3.78507
1601, -9.81444
1602, -5.24491
1603, 4.13047
1604, -10.9657
1605, -13.8345
1606, -8.25531
1607, -6.20203
1608, 2.80863
1609, 6.6562
1610, -2.06383
1611, -11.2589
1612, -6.91709
1613, 9.40984
1614, 16.4865
1615, 16.5829
1616, 7.69113
1617, -12.3448
1618, -13.0861
1619, -0.395474
1620, 10.0607
1621, 7.21388
1622, 0.236212
1623, -6.16528
1624, -19.2121
1625, -20.1627
1626, -8.6557
1627, -1.25124
1628, 5.33652
1629, 4.71485
1630, -8.50444
1631, -5.4695
1632, 4.34389
1633, 9.89012
1634, 9.73745
1635, 8.53553
1636, 11.1846
1637, 20.3034
1638, -4.59892
1639, -43.8929
1640, -55.924
1641, -32.1245
1642, 7.75821
1643, 37.4225
1644, 19.1648
1645, 7.51091
1646, 12.1126
1647, 5.87741
1648, -11.9018
1649, -28.9851
1650, -34.0365