File: Raman_Spectroscopy_GAN/input/clinical_sample/s5/s5_4_785M-T_Rlab.csv
a,b
320, -52.0553
321, -38.6414
322, -23.7314
323, -7.78238
324, 7.32186
325, 16.9791
326, 20.5735
327, 18.9923
328, 15.4214
329, 21.115
330, 39.5158
331, 70.0361
332, 107.39
333, 139.426
334, 150.768
335, 145.939
336, 137.548
337, 126.107
338, 110.272
339, 90.8319
340, 96.3078
341, 134.603
342, 171.68
343, 187.463
344, 189.331
345, 190.951
346, 189.984
347, 176.098
348, 149.154
349, 117.656
350, 83.8863
351, 55.4761
352, 41.9067
353, 36.3268
354, 31.9566
355, 30.5729
356, 34.3048
357, 39.9842
358, 30.4264
359, 5.45886
360, -5.67869
361, 4.39439
362, 12.0548
363, 1.38716
364, -14.2261
365, -18.2178
366, -15.0663
367, -16.1483
368, -21.1591
369, -24.111
370, -23.6026
371, -9.58778
372, 22.5442
373, 46.6698
374, 44.1218
375, 27.825
376, 16.7861
377, 7.99822
378, -7.03359
379, -26.7171
380, -30.684
381, -16.8605
382, -4.00602
383, 2.24113
384, 4.47204
385, 3.79384
386, -2.22765
387, -17.2541
388, -36.7402
389, -45.8891
390, -45.4663
391, -39.9208
392, -29.8381
393, -20.2593
394, -12.1448
395, -7.10787
396, -6.09102
397, -6.45659
398, -5.17312
399, -0.0248208
400, 14.3723
401, 40.1491
402, 82.0684
403, 142.659
404, 195.089
405, 234.932
406, 270.055
407, 304.184
408, 337.203
409, 369.004
410, 396.119
411, 412.363
412, 418.506
413, 417.49
414, 412.436
415, 421.925
416, 447.98
417, 470.76
418, 483.515
419, 485.583
420, 476.554
421, 459.457
422, 437.938
423, 410.064
424, 371.532
425, 326.465
426, 292.138
427, 268.319
428, 238.682
429, 199.805
430, 153.55
431, 100.71
432, 60.054
433, 33.628
434, 15.9528
435, 1.49008
436, -6.05515
437, 4.84389
438, 27.64
439, 27.4146
440, 4.67364
441, -4.77497
442, 4.52058
443, 6.80684
444, -7.8386
445, -17.2718
446, -6.42424
447, 10.8283
448, 17.5507
449, 22.2948
450, 42.8693
451, 72.6777
452, 93.0072
453, 102.148
454, 100.671
455, 89.5626
456, 81.703
457, 81.2572
458, 83.033
459, 84.117
460, 73.7208
461, 41.2282
462, 1.37809
463, -20.2581
464, -27.6015
465, -27.7349
466, -21.2752
467, -8.5785
468, 9.8755
469, 21.1694
470, 21.2771
471, 21.1104
472, 24.9731
473, 25.2552
474, 16.908
475, 2.51988
476, -14.6873
477, -29.1698
478, -28.4459
479, -15.3279
480, 1.43638
481, 20.1504
482, 26.9349
483, 21.0326
484, 13.6939
485, 7.77964
486, 6.17244
487, 9.58496
488, 21.5219
489, 43.0354
490, 58.7033
491, 52.1825
492, 31.0559
493, 8.48779
494, -12.2281
495, -27.1132
496, -36.981
497, -41.3682
498, -40.7636
499, -36.6917
500, -29.7598
501, -28.9334
502, -36.4724
503, -26.9576
504, 13.4295
505, 57.6819
506, 80.302
507, 88.8058
508, 92.69
509, 95.4255
510, 113.326
511, 150.982
512, 220.01
513, 301.407
514, 374.621
515, 435.19
516, 468.956
517, 474.607
518, 474.008
519, 473.498
520, 454.454
521, 408.191
522, 361.51
523, 333.656
524, 307.726
525, 264.756
526, 214.459
527, 173.438
528, 137.01
529, 92.6515
530, 51.986
531, 21.9933
532, 1.49408
533, -7.17454
534, -5.12064
535, -0.519785
536, 4.61618
537, 3.18759
538, -7.38404
539, -19.3702
540, -29.4453
541, -25.8463
542, 1.22302
543, 30.0279
544, 33.3483
545, 22.1045
546, 14.0752
547, 9.14001
548, 2.68775
549, -0.141478
550, 19.9437
551, 59.1797
552, 81.0633
553, 82.7286
554, 75.1588
555, 60.4632
556, 38.5091
557, 9.98689
558, -9.82813
559, -17.4453
560, -16.0881
561, -6.99051
562, 1.03778
563, 1.48866
564, -1.80682
565, -5.09536
566, -8.78909
567, -13.3862
568, -16.2855
569, -11.3892
570, 0.72461
571, 17.6748
572, 37.1293
573, 51.2056
574, 57.1496
575, 44.4338
576, 14.9936
577, -3.0917
578, -6.89087
579, -5.73268
580, -1.85218
581, 8.52376
582, 27.3916
583, 42.2584
584, 47.3222
585, 46.1952
586, 41.2832
587, 30.4967
588, 11.96
589, -9.31065
590, -30.7765
591, -42.7678
592, -27.3447
593, 3.21289
594, 22.1753
595, 29.5861
596, 29.0774
597, 22.0939
598, 13.0159
599, 6.58013
600, 16.1999
601, 41.1052
602, 58.4664
603, 63.7109
604, 48.7122
605, 14.4249
606, -5.90216
607, -6.31823
608, -5.28214
609, -8.82872
610, -3.09771
611, 18.3772
612, 25.7062
613, 1.9077
614, -19.0811
615, -15.1792
616, -10.3019
617, -26.0813
618, -37.5661
619, -15.0522
620, 22.1471
621, 46.2295
622, 59.475
623, 70.4687
624, 75.4923
625, 65.9563
626, 45.2446
627, 23.2771
628, 7.25225
629, 9.6777
630, 28.3768
631, 51.2824
632, 72.3895
633, 83.328
634, 83.3992
635, 75.0324
636, 59.9405
637, 47.7965
638, 40.0324
639, 31.7938
640, 21.877
641, 12.2282
642, 2.23589
643, -2.47226
644, 0.000842251
645, 11.8627
646, 34.373
647, 44.2809
648, 31.6062
649, 17.0323
650, 11.7907
651, 4.21929
652, -14.5297
653, -19.4756
654, 8.89763
655, 42.8322
656, 54.7926
657, 49.9211
658, 33.4576
659, 12.489
660, -3.33911
661, -11.1411
662, -5.62875
663, 5.48056
664, 10.3972
665, 9.60175
666, 5.16497
667, -0.79098
668, -4.22405
669, -5.37491
670, -4.37751
671, -1.2047
672, 4.28336
673, 11.6245
674, 17.6442
675, 19.4453
676, 8.7267
677, -8.27725
678, -13.459
679, -6.88322
680, 7.93387
681, 29.9055
682, 49.4397
683, 63.8331
684, 65.251
685, 57.086
686, 60.1132
687, 72.657
688, 71.6533
689, 57.1155
690, 48.0851
691, 45.4588
692, 36.2402
693, 21.7271
694, 27.5409
695, 53.4683
696, 60.062
697, 42.8662
698, 23.3253
699, 5.98393
700, -8.21017
701, -19.275
702, -16.6503
703, -0.257144
704, 4.24679
705, -7.33739
706, -15.8417
707, -16.3398
708, -2.89251
709, 26.0845
710, 58.6204
711, 87.3518
712, 104.685
713, 108.033
714, 92.2145
715, 58.1085
716, 34.9503
717, 33.247
718, 28.5937
719, 15.6124
720, 7.80166
721, 7.17535
722, 2.57735
723, -8.03045
724, -1.56069
725, 28.1682
726, 58.6264
727, 78.9458
728, 87.126
729, 82.5923
730, 65.8978
731, 38.4706
732, 16.2551
733, 5.65352
734, 4.97708
735, 13.5881
736, 27.7601
737, 43.5034
738, 45.906
739, 32.3791
740, 21.3819
741, 16.8346
742, 6.05335
743, -12.4037
744, -26.7358
745, -35.0042
746, -39.5208
747, -40.05
748, -27.176
749, -0.184013
750, 19.9048
751, 29.1734
752, 38.7394
753, 48.8908
754, 44.3738
755, 24.7144
756, 7.51765
757, -3.2784
758, -9.52785
759, -12.3428
760, -14.0482
761, -13.6743
762, -3.2893
763, 16.6032
764, 34.5923
765, 47.6742
766, 57.9715
767, 62.9908
768, 51.3288
769, 31.1325
770, 41.0326
771, 68.9828
772, 72.4228
773, 53.8183
774, 32.0826
775, 11.626
776, 2.22978
777, 1.98753
778, 7.06728
779, 12.4111
780, 4.95842
781, -7.80012
782, -11.7402
783, -7.17171
784, 5.66767
785, 23.3758
786, 37.7902
787, 44.8984
788, 39.1101
789, 31.2578
790, 38.063
791, 51.9333
792, 67.9928
793, 77.0017
794, 70.4399
795, 57.5339
796, 45.5966
797, 33.6622
798, 21.1647
799, 15.7337
800, 19.751
801, 20.3604
802, 12.4457
803, 11.374
804, 22.4228
805, 31.6303
806, 33.9113
807, 24.5587
808, 4.35259
809, -2.84701
810, 6.07813
811, 12.6365
812, 12.6847
813, 11.1836
814, 10.6796
815, 13.9199
816, 22.8784
817, 41.5796
818, 63.3002
819, 61.485
820, 38.8201
821, 10.4353
822, -15.9385
823, -29.0011
824, -26.494
825, -2.25771
826, 29.9798
827, 43.5902
828, 45.792
829, 46.6869
830, 36.7587
831, 6.00592
832, -15.1531
833, -4.48672
834, 13.4657
835, 24.0418
836, 41.4537
837, 69.1201
838, 82.637
839, 73.4333
840, 65.6367
841, 65.234
842, 51.308
843, 21.6598
844, 2.94443
845, -2.80822
846, -2.24579
847, 3.61926
848, 14.8197
849, 30.7732
850, 44.5978
851, 49.8061
852, 30.895
853, -0.191279
854, -18.2735
855, -27.1718
856, -31.8736
857, -27.0149
858, -5.41368
859, 12.9362
860, 10.1073
861, 5.19649
862, 10.5164
863, 17.809
864, 21.9838
865, 25.8851
866, 30.3595
867, 33.4334
868, 34.2936
869, 30.922
870, 23.5928
871, 15.8062
872, 8.263
873, 2.55215
874, -2.02233
875, -6.46784
876, -10.2145
877, -11.486
878, -10.5247
879, -7.50426
880, -0.705293
881, 12.042
882, 23.526
883, 28.1619
884, 21.6323
885, 2.55497
886, -9.41614
887, -7.71658
888, 9.39948
889, 39.9613
890, 53.0551
891, 45.0434
892, 27.3986
893, 7.97622
894, 9.26143
895, 27.2634
896, 46.5803
897, 56.1888
898, 38.2044
899, 9.71874
900, -7.50476
901, -8.60398
902, 11.1019
903, 31.9841
904, 40.8348
905, 34.0217
906, 12.4375
907, 1.22383
908, 3.34925
909, 4.49157
910, 5.11362
911, 17.697
912, 38.1912
913, 45.5782
914, 48.88
915, 68.1968
916, 77.4019
917, 41.2714
918, -0.276355
919, -13.2358
920, -11.9259
921, -3.40938
922, 16.4454
923, 47.7187
924, 57.8499
925, 44.3279
926, 38.4096
927, 46.8783
928, 57.8637
929, 69.2714
930, 77.8114
931, 85.0051
932, 93.5897
933, 88.715
934, 55.1744
935, 18.0399
936, -4.54183
937, -15.5605
938, -15.3445
939, 8.05224
940, 53.351
941, 76.9933
942, 78.5114
943, 84.1722
944, 87.6452
945, 67.1805
946, 38.0135
947, 25.4546
948, 15.4423
949, -8.70003
950, -24.5724
951, -20.2255
952, -12.9445
953, -6.54711
954, 17.0721
955, 55.3971
956, 62.7407
957, 44.5885
958, 35.4866
959, 33.1281
960, 28.721
961, 21.8251
962, 12.1814
963, 1.87593
964, -8.81739
965, -4.86965
966, 17.3295
967, 25.3712
968, 14.1865
969, 0.450595
970, -11.5193
971, -17.1352
972, -15.4067
973, -4.01223
974, 4.19851
975, -5.20708
976, -9.73299
977, 3.88713
978, 15.6652
979, 18.6021
980, 25.0746
981, 35.8925
982, 42.2326
983, 43.5471
984, 41.2151
985, 28.7449
986, -4.02823
987, -34.2968
988, -44.9433
989, -37.8353
990, -14.549
991, 4.85022
992, 15.6989
993, 18.3621
994, 21.8504
995, 55.0452
996, 111.319
997, 162.634
998, 196.654
999, 201.358
1000, 186.52
1001, 159.593
1002, 147.623
1003, 152.951
1004, 134.705
1005, 90.1645
1006, 34.8771
1007, -13.51
1008, -34.9468
1009, -31.1405
1010, -2.36951
1011, 30.2131
1012, 56.0099
1013, 67.5888
1014, 65.568
1015, 61.9987
1016, 55.4641
1017, 35.0325
1018, 16.1948
1019, 19.5747
1020, 40.8578
1021, 77.1303
1022, 111.418
1023, 135.379
1024, 127.606
1025, 88.7767
1026, 49.8152
1027, 19.9062
1028, 14.1363
1029, 16.8606
1030, 6.6736
1031, -9.53055
1032, -26.8186
1033, -29.6672
1034, -15.0572
1035, -2.96257
1036, 2.55601
1037, -1.93849
1038, -11.5093
1039, -16.648
1040, -8.48168
1041, 20.7748
1042, 29.7069
1043, 3.17229
1044, -16.3416
1045, -22.2052
1046, -21.9599
1047, -17.6058
1048, -11.4183
1049, -12.7101
1050, -31.7766
1051, -42.9351
1052, -34.527
1053, -27.8433
1054, -27.8825
1055, -32.6902
1056, -42.6605
1057, -59.1814
1058, -70.6156
1059, -62.8821
1060, -58.4146
1061, -67.5446
1062, -65.4544
1063, -45.5403
1064, -9.93613
1065, 47.0095
1066, 137.116
1067, 253.21
1068, 388.428
1069, 569.032
1070, 761.073
1071, 944.674
1072, 1112.95
1073, 1258.74
1074, 1380.63
1075, 1477.41
1076, 1534.59
1077, 1537.61
1078, 1477.64
1079, 1353.92
1080, 1193.71
1081, 1008.74
1082, 819.351
1083, 623.528
1084, 414.73
1085, 247.851
1086, 118.109
1087, 36.1526
1088, -3.01778
1089, -35.7324
1090, -66.7088
1091, -88.2509
1092, -104.222
1093, -118.755
1094, -113.011
1095, -78.5489
1096, -47.8127
1097, -27.6618
1098, -18.3418
1099, -20.1709
1100, -35.1796
1101, -39.4272
1102, -14.495
1103, 3.59097
1104, 4.05273
1105, -0.289539
1106, -7.09734
1107, -16.3709
1108, -18.5775
1109, -2.6288
1110, 3.33124
1111, -11.2293
1112, -13.4777
1113, -2.14279
1114, 3.22028
1115, 7.13184
1116, 18.537
1117, 31.5449
1118, 41.4596
1119, 32.7994
1120, 7.0644
1121, -10.5777
1122, -19.892
1123, -23.0436
1124, -9.38767
1125, 27.4387
1126, 39.5682
1127, 20.8068
1128, 21.6247
1129, 36.735
1130, 39.3034
1131, 52.0919
1132, 85.4635
1133, 95.3373
1134, 76.1392
1135, 84.0095
1136, 110.406
1137, 117.637
1138, 117.73
1139, 121.743
1140, 107.5
1141, 72.88
1142, 52.434
1143, 50.8179
1144, 49.5686
1145, 38.691
1146, 10.8889
1147, -9.22255
1148, -15.4232
1149, -11.0131
1150, -1.78719
1151, 0.614218
1152, -1.07428
1153, -4.23666
1154, -4.09684
1155, 0.149388
1156, 4.37064
1157, 5.55132
1158, -0.913215
1159, -7.73322
1160, -9.63956
1161, -1.52206
1162, 13.1699
1163, 10.9939
1164, 0.169393
1165, -2.02948
1166, -6.38579
1167, -18.4942
1168, -26.4339
1169, -26.0124
1170, -11.3646
1171, 9.84541
1172, 27.5496
1173, 45.9154
1174, 61.1673
1175, 58.794
1176, 51.0302
1177, 79.8117
1178, 116.544
1179, 138.491
1180, 155.988
1181, 168.218
1182, 154.486
1183, 125.64
1184, 105.37
1185, 77.2583
1186, 33.8761
1187, 9.90573
1188, 6.49922
1189, 10.4328
1190, 15.1798
1191, 13.9497
1192, 0.429936
1193, -22.8319
1194, -33.0716
1195, -29.746
1196, -17.1833
1197, 0.345597
1198, 18.3556
1199, 11.8268
1200, -13.0009
1201, -14.5562
1202, -6.76293
1203, -8.482
1204, 12.9522
1205, 64.5997
1206, 95.6456
1207, 106.876
1208, 114.013
1209, 96.8225
1210, 46.394
1211, 6.67632
1212, -10.1357
1213, -3.02178
1214, 10.4109
1215, 12.6843
1216, 8.18309
1217, 1.2247
1218, -2.17588
1219, 0.708277
1220, 13.4606
1221, 26.5027
1222, 33.6769
1223, 26.9865
1224, 11.3138
1225, 1.46344
1226, -9.10981
1227, -23.6187
1228, -22.3989
1229, -4.04495
1230, 21.4362
1231, 36.8983
1232, 28.0131
1233, 30.2374
1234, 46.9768
1235, 45.2912
1236, 38.5898
1237, 47.5734
1238, 35.0484
1239, -1.22839
1240, 7.77436
1241, 43.2621
1242, 55.4152
1243, 52.609
1244, 40.7852
1245, 26.5877
1246, 22.1455
1247, 43.7145
1248, 61.1546
1249, 58.556
1250, 54.7749
1251, 56.3089
1252, 69.0238
1253, 74.6373
1254, 59.789
1255, 30.5269
1256, 4.05128
1257, 12.3637
1258, 42.8115
1259, 76.9308
1260, 70.9886
1261, 30.4844
1262, 11.727
1263, 9.8128
1264, 19.3328
1265, 54.7307
1266, 98.9492
1267, 90.2431
1268, 69.3738
1269, 79.2455
1270, 81.9753
1271, 73.702
1272, 80.9937
1273, 71.9284
1274, 16.4087
1275, -16.0917
1276, -16.2127
1277, -13.2383
1278, 1.08611
1279, 36.5324
1280, 65.2064
1281, 80.1564
1282, 86.6008
1283, 73.9645
1284, 34.4515
1285, 1.51789
1286, -13.6698
1287, -8.88818
1288, 0.366525
1289, 1.53426
1290, 3.86982
1291, 7.35232
1292, 4.30693
1293, 5.86483
1294, 18.1247
1295, 15.9457
1296, 2.45241
1297, -0.945893
1298, -4.60961
1299, -13.8931
1300, -12.357
1301, -0.703927
1302, 13.462
1303, 29.8951
1304, 44.0053
1305, 29.3403
1306, 0.221794
1307, -12.5034
1308, -14.466
1309, -8.95011
1310, 0.635258
1311, 0.880262
1312, -23.0321
1313, -15.1496
1314, 27.5058
1315, 40.0408
1316, 32.6509
1317, 20.6807
1318, 0.908509
1319, -15.8412
1320, -0.854046
1321, 10.8226
1322, -1.71812
1323, -3.15655
1324, 13.6887
1325, 49.8014
1326, 73.7716
1327, 73.5453
1328, 65.0138
1329, 56.5884
1330, 56.3287
1331, 57.0718
1332, 51.4145
1333, 23.3359
1334, -4.18952
1335, -14.258
1336, -5.17397
1337, 12.4106
1338, 11.9212
1339, -2.70003
1340, -22.9574
1341, -18.8914
1342, -0.00204087
1343, 14.2809
1344, 19.2401
1345, 15.9694
1346, 13.6669
1347, 20.3855
1348, 36.337
1349, 31.9762
1350, 14.728
1351, 14.7866
1352, 29.7867
1353, 52.1978
1354, 61.7457
1355, 46.3601
1356, -0.374938
1357, -16.0701
1358, 4.80335
1359, 33.3354
1360, 50.885
1361, 47.8258
1362, 30.7432
1363, 11.1619
1364, 5.71726
1365, 13.8848
1366, 28.5796
1367, 23.9591
1368, 25.5012
1369, 47.9579
1370, 49.6157
1371, 30.5497
1372, 5.0505
1373, -8.78106
1374, -2.70283
1375, 32.8759
1376, 54.2621
1377, 31.2737
1378, 9.85505
1379, 0.293406
1380, 1.86847
1381, 16.6752
1382, 36.7555
1383, 26.249
1384, 32.6403
1385, 83.171
1386, 97.4498
1387, 76.479
1388, 46.5447
1389, 24.1678
1390, 23.6702
1391, 62.4929
1392, 84.5056
1393, 61.1445
1394, 51.2493
1395, 57.2037
1396, 67.56
1397, 63.036
1398, 40.7063
1399, 8.97881
1400, -3.48536
1401, 11.4057
1402, 26.5449
1403, 23.266
1404, -6.99514
1405, -7.6787
1406, 17.5716
1407, 35.73
1408, 38.9016
1409, 25.792
1410, 2.16084
1411, -14.0769
1412, -13.7971
1413, -8.47171
1414, -7.90049
1415, -20.1158
1416, -9.80039
1417, 15.0182
1418, 11.9399
1419, 0.0302405
1420, -12.4914
1421, -33.2247
1422, -30.9251
1423, 12.9189
1424, 46.9101
1425, 62.2515
1426, 62.5326
1427, 53.7445
1428, 41.9042
1429, 35.9642
1430, 23.9467
1431, 3.41943
1432, -14.1218
1433, -19.3345
1434, -9.457
1435, -5.74975
1436, -3.54495
1437, 4.78845
1438, 5.70748
1439, 4.09554
1440, 13.8052
1441, 17.192
1442, 17.0533
1443, 39.6298
1444, 61.7885
1445, 66.1355
1446, 33.2365
1447, -0.475918
1448, -4.4719
1449, 16.1627
1450, 37.4868
1451, 28.6508
1452, 7.25273
1453, -7.76125
1454, 5.61536
1455, 30.8019
1456, 45.0315
1457, 10.9273
1458, -9.94206
1459, 2.08673
1460, 17.2488
1461, 17.2026
1462, -1.17598
1463, -2.4212
1464, 9.16455
1465, 25.5143
1466, 39.8162
1467, 38.8592
1468, 12.8385
1469, 22.0798
1470, 53.8045
1471, 57.704
1472, 61.2085
1473, 66.0979
1474, 55.9105
1475, 52.1904
1476, 56.6604
1477, 46.8038
1478, 27.6624
1479, 10.7691
1480, 13.5393
1481, 25.8892
1482, 43.3714
1483, 75.7837
1484, 92.7323
1485, 71.6452
1486, 42.3857
1487, 3.88139
1488, -42.0929
1489, -42.6965
1490, -9.10201
1491, 28.8578
1492, 44.6059
1493, 33.9119
1494, 4.79114
1495, 6.41445
1496, 31.3755
1497, 38.4091
1498, 24.8116
1499, 3.17152
1500, 2.36221
1501, 24.914
1502, 53.1582
1503, 43.6795
1504, 18.2573
1505, -3.81445
1506, 0.803828
1507, 6.59668
1508, 2.27219
1509, -7.69105
1510, -0.290844
1511, 26.944
1512, 37.6819
1513, 30.5722
1514, 10.1624
1515, -9.14784
1516, -6.44721
1517, 21.8636
1518, 37.8354
1519, 44.8515
1520, 44.28
1521, 22.9631
1522, 4.25651
1523, 0.763929
1524, -7.37854
1525, -9.98002
1526, -3.38459
1527, -9.29412
1528, -14.4938
1529, -10.6451
1530, -8.83108
1531, 14.3911
1532, 61.9723
1533, 62.0164
1534, 45.8136
1535, 37.9906
1536, 27.6342
1537, 26.3725
1538, 30.8596
1539, -5.79065
1540, -30.8431
1541, -16.0966
1542, 13.6819
1543, 26.899
1544, 11.709
1545, -7.29432
1546, -5.50767
1547, 18.6448
1548, 27.2832
1549, 9.07761
1550, -24.9528
1551, -31.8332
1552, -12.6314
1553, 14.2286
1554, 1.61574
1555, -14.4981
1556, -22.0558
1557, -27.763
1558, -29.8725
1559, -34.4354
1560, -54.1216
1561, -64.4524
1562, -59.486
1563, -42.3291
1564, -17.2176
1565, 3.57634
1566, 4.54933
1567, 6.88404
1568, 20.5161
1569, 57.0389
1570, 149.201
1571, 286.804
1572, 456.713
1573, 623.498
1574, 769.817
1575, 893.371
1576, 1041.32
1577, 1127.23
1578, 1106.06
1579, 1029.47
1580, 922.913
1581, 802.96
1582, 682.942
1583, 515.065
1584, 315.072
1585, 189.225
1586, 116.125
1587, 62.9396
1588, -6.32491
1589, -52.0101
1590, -68.118
1591, -60.3984
1592, -49.4745
1593, -49.141
1594, -61.411
1595, -52.8913
1596, -36.6587
1597, -28.7291
1598, -46.4709
1599, -44.3275
1600, -15.42
1601, 6.21891
1602, 24.9742
1603, 24.8368
1604, -14.2712
1605, -27.0225
1606, -13.3115
1607, 8.90491
1608, 25.2622
1609, 29.1748
1610, 20.7948
1611, 9.71653
1612, 2.04598
1613, -3.31802
1614, -11.7096
1615, 1.40914
1616, 32.5447
1617, 56.0905
1618, 54.5721
1619, 42.8942
1620, 41.2198
1621, 46.7491
1622, 45.3298
1623, 25.8298
1624, -15.48
1625, -32.5909
1626, -16.5035
1627, 10.763
1628, 29.058
1629, 29.3778
1630, 15.2292
1631, 22.993
1632, 39.466
1633, 45.7854
1634, 24.1411
1635, 14.7823
1636, 23.7794
1637, 18.1036
1638, 9.57002
1639, 2.04357
1640, -2.61234
1641, 15.7498
1642, 15.8068
1643, -16.6469
1644, -23.3028
1645, -16.5797
1646, -6.01741
1647, 1.20285
1648, -12.781
1649, -22.9641
1650, -5.21193